time_ms,accel_x,accel_y,accel_z,pitch,roll,sync
2664532.0,0.021,0.01,-0.041,11.77,-153.39,0
2664537.0,-0.015,-0.002,-0.039,-3.16,158.77,0
2664542.0,0.004,0.024,0.016,55.47,-13.97,0
2664547.0,0.011,0.034,0.042,37.48,-14.77,0
2664552.0,-0.001,0.029,0.018,57.36,2.48,0
2664557.0,-0.03,0.019,-0.029,24.76,134.92,0
2664562.0,0.006,0.002,0.014,9.33,-25.07,0
2664567.0,-0.01,0.024,0.016,51.51,32.89,0
2664572.0,-0.001,-0.007,0.023,-17.0,1.97,0
2664577.0,0.023,0.024,0.026,34.83,-42.1,0
2664582.0,-0.032,0.005,-0.013,8.07,111.68,0
2664587.0,-0.041,0.017,-0.017,20.5,112.84,0
2664592.0,0.009,0.019,0.009,57.04,-44.74,0
2664597.0,-0.003,-0.029,0.057,-26.75,3.22,0
2664602.0,0.018,0.017,0.006,40.87,-70.6,0
2664607.0,-0.02,0.034,-0.039,37.47,152.92,0
2664612.0,0.011,0.024,-0.013,54.86,-138.64,0
2664617.0,-0.003,0.005,0.011,22.6,15.84,0
2664622.0,-0.008,-0.002,-0.003,-15.12,111.31,0
2664627.0,0.016,-0.017,0.016,-36.39,-44.86,0
2664632.0,0.011,0.005,0.069,4.0,-9.24,0
2664637.0,-0.008,0.005,-0.015,15.92,152.12,0
2664642.0,0.014,-0.002,-0.034,-3.6,-158.38,0
2664647.0,0.028,-0.002,-0.017,-4.02,-122.04,0
2664652.0,0.011,-0.002,0.014,-7.48,-39.31,0
2664657.0,-0.006,-0.002,0.002,-21.64,73.3,0
2664662.0,-0.022,-0.012,-0.02,-21.68,131.65,0
2664667.0,0.004,0.026,0.016,57.96,-13.97,0
2664672.0,0.006,-0.014,-0.022,-31.66,-164.0,0
2664677.0,0.004,-0.007,0.023,-16.77,-9.75,0
2664682.0,0.011,0.01,0.009,34.11,-51.59,0
2664687.0,-0.006,-0.019,0.016,-48.31,19.2,0
2664692.0,0.002,0.012,-0.015,38.47,-173.96,0
2664697.0,0.002,0.005,0.009,28.41,-10.21,0
2664702.0,-0.013,0.029,-0.013,58.0,134.82,0
2664707.0,0.004,0.0,0.009,0.47,-24.25,0
2664712.0,0.006,-0.007,0.028,-13.89,-12.84,0
2664717.0,0.009,0.026,0.045,30.07,-11.09,0
2664722.0,-0.008,0.002,-0.017,7.34,155.46,0
2664727.0,-0.022,0.017,-0.029,24.49,142.81,0
2664732.0,-0.013,-0.005,-0.034,-7.34,159.55,0
2664737.0,0.018,-0.007,0.021,-14.35,-41.39,0
2664742.0,-0.006,-0.017,0.028,-30.28,11.28,0
2664747.0,0.009,-0.019,0.014,-49.61,-32.75,0
2664752.0,0.002,0.038,-0.02,62.55,-175.41,0
2664757.0,-0.039,-0.024,-0.008,-30.88,101.42,0
2664762.0,0.023,-0.026,0.018,-41.59,-51.46,0
2664767.0,0.004,-0.002,0.028,-4.68,-8.11,0
2664772.0,0.028,0.012,0.03,16.27,-42.57,0
2664777.0,-0.018,0.019,-0.008,44.97,114.23,0
2664782.0,0.002,-0.009,-0.046,-11.61,-178.02,0
2664787.0,0.002,0.005,-0.006,40.33,-163.84,0
2664792.0,0.004,0.031,0.023,52.94,-9.75,0
2664797.0,-0.039,0.012,0.004,17.04,84.06,0
2664802.0,0.006,-0.024,-0.006,-70.54,-130.78,0
2664807.0,-0.049,-0.017,-0.034,-15.66,125.12,0
2664812.0,-0.015,0.017,-0.049,18.3,162.67,0
2664817.0,-0.018,0.036,0.014,58.29,52.14,0
2664822.0,-0.003,0.007,-0.017,22.23,169.65,0
2664827.0,-0.01,0.022,0.004,62.74,68.58,0
2664832.0,-0.015,0.012,0.047,13.67,17.82,0
2664837.0,0.004,0.007,0.014,27.06,-16.3,0
2664842.0,-0.039,-0.007,0.023,-8.88,59.3,0
2664847.0,0.021,0.012,0.004,29.68,-78.9,0
2664852.0,-0.02,0.002,-0.013,5.97,122.46,0
2664857.0,0.016,0.002,0.021,5.39,-37.46,0
2664862.0,-0.001,0.034,0.023,55.33,1.97,0
2664867.0,-0.018,0.046,0.052,39.73,18.67,0
2664872.0,-0.006,-0.002,-0.027,-4.79,168.33,0
2664877.0,-0.018,0.005,-0.07,3.85,165.95,0
2664882.0,0.011,0.017,0.023,33.16,-25.69,0
2664887.0,0.002,0.024,0.023,45.9,-3.93,0
2664892.0,-0.01,0.014,0.009,46.64,49.51,0
2664897.0,-0.015,-0.009,0.011,-26.7,53.42,0
2664902.0,0.002,0.024,0.028,40.57,-3.26,0
2664907.0,0.002,0.01,-0.025,21.34,-176.3,0
2664912.0,-0.01,0.0,0.03,0.14,18.84,0
2664917.0,0.004,0.019,-0.006,70.53,-144.08,0
2664922.0,0.021,0.036,0.009,57.92,-66.88,0
2664927.0,-0.025,-0.021,0.011,-38.3,65.54,0
2664932.0,0.011,0.002,-0.006,11.23,-116.24,0
2664937.0,0.002,-0.009,0.035,-15.09,-2.6,0
2664942.0,-0.018,0.026,0.004,55.7,76.95,0
2664947.0,-0.015,0.0,0.018,0.19,39.44,0
2664952.0,0.006,-0.017,-0.01,-54.01,-148.2,0
2664957.0,-0.001,-0.007,0.047,-8.56,0.97,0
2664962.0,-0.008,0.01,0.014,31.42,30.32,0
2664967.0,0.021,0.014,-0.022,25.39,-137.02,0
2664972.0,-0.006,-0.005,-0.006,-30.97,134.59,0
2664977.0,0.014,0.012,0.03,19.9,-24.05,0
2664982.0,0.006,-0.012,0.047,-14.03,-7.71,0
2664987.0,0.023,-0.005,0.016,-9.49,-55.27,0
2664992.0,-0.001,-0.026,-0.01,-68.53,175.57,0
2664997.0,0.014,0.026,0.002,62.64,-82.96,0
2665002.0,0.009,0.017,0.045,20.26,-11.09,0
2665007.0,0.016,0.002,-0.001,8.8,-92.58,0
2665012.0,-0.003,-0.009,0.004,-61.43,38.11,0
2665017.0,-0.006,0.007,-0.008,36.89,144.74,0
2665022.0,-0.01,0.034,0.014,62.97,37.25,0
2665027.0,0.002,-0.012,-0.013,-42.92,-172.83,0
2665032.0,0.016,0.024,-0.034,32.45,-155.01,0
2665037.0,0.011,-0.002,0.014,-7.48,-39.31,0
2665042.0,-0.01,-0.014,-0.037,-20.57,164.19,0
2665047.0,0.004,0.012,-0.006,60.56,-144.08,0
2665052.0,0.009,-0.012,-0.015,-34.27,-149.8,0
2665057.0,0.018,0.007,-0.013,18.03,-124.66,0
2665062.0,0.009,0.026,0.033,37.88,-14.98,0
2665067.0,-0.006,-0.012,0.021,-28.87,15.01,0
2665072.0,0.014,-0.012,-0.008,-37.14,-120.22,0
2665077.0,0.023,0.019,-0.039,22.97,-149.33,0
2665082.0,0.002,-0.007,-0.008,-41.38,-168.58,0
2665087.0,0.014,0.017,0.018,36.34,-36.35,0
2665092.0,0.011,0.019,0.026,34.54,-23.56,0
2665097.0,-0.003,-0.014,0.033,-23.44,5.56,0
2665102.0,-0.006,-0.026,-0.001,-77.89,97.33,0
2665107.0,0.011,0.002,0.004,11.75,-69.99,0
2665112.0,-0.001,0.029,0.028,45.79,1.63,0
2665117.0,0.023,0.034,0.018,48.63,-51.46,0
2665122.0,0.002,0.01,-0.01,42.83,-171.19,0
2665127.0,0.002,0.01,0.023,22.53,-3.93,0
2665132.0,0.018,0.014,0.014,32.27,-53.37,0
2665137.0,-0.001,0.014,0.033,23.76,1.39,0
2665142.0,-0.006,0.024,0.009,66.45,32.24,0
2665147.0,-0.006,0.022,0.018,48.31,16.86,0
2665152.0,-0.01,0.019,0.004,59.91,68.58,0
2665157.0,-0.001,0.005,-0.01,25.24,175.57,0
2665162.0,0.004,-0.002,-0.003,-24.57,-127.96,0
2665167.0,0.018,0.024,0.002,52.5,-84.78,0
2665172.0,0.004,0.002,-0.049,2.9,-175.31,0
2665177.0,-0.003,0.031,-0.013,67.25,165.88,0
2665182.0,-0.003,0.029,-0.032,41.99,174.28,0
2665187.0,0.002,0.022,0.035,31.55,-2.6,0
2665192.0,0.011,0.002,-0.041,3.3,-164.9,0
2665197.0,-0.003,0.029,0.004,79.82,38.11,0
2665202.0,-0.006,0.041,0.021,62.13,15.01,0
2665207.0,-0.001,0.005,0.021,13.15,2.19,0
2665212.0,0.021,-0.009,-0.006,-23.86,-104.86,0
2665217.0,-0.015,-0.002,0.018,-5.54,39.44,0
2665222.0,-0.006,0.017,0.004,67.69,53.93,0
2665227.0,0.026,0.007,-0.041,8.49,-148.34,0
2665232.0,0.011,0.01,-0.003,39.78,-105.57,0
2665237.0,0.014,0.024,0.014,51.3,-44.83,0
2665242.0,0.009,0.012,-0.051,13.11,-170.23,0
2665247.0,0.004,0.017,-0.008,62.27,-153.2,0
2665252.0,0.004,-0.005,0.035,-7.57,-6.47,0
2665257.0,-0.006,-0.014,-0.053,-14.9,174.03,0
2665262.0,0.002,0.017,-0.006,71.2,-163.84,0
2665267.0,-0.001,0.002,0.028,5.05,1.63,0
2665272.0,0.018,0.017,-0.017,33.6,-133.6,0
2665277.0,-0.008,0.005,0.033,8.21,13.68,0
2665282.0,0.023,-0.017,0.026,-25.79,-42.1,0
2665287.0,0.011,0.014,0.002,51.97,-81.47,0
2665292.0,-0.003,0.0,-0.01,0.42,162.77,0
2665297.0,-0.03,-0.002,0.009,-4.29,73.3,0
2665302.0,-0.013,-0.026,0.026,-42.53,26.49,0
2665307.0,0.006,0.01,0.028,18.58,-12.84,0
2665312.0,0.006,0.01,-0.013,34.21,-153.29,0
2665317.0,0.026,0.01,0.016,17.76,-57.87,0
2665322.0,-0.003,0.0,0.033,0.14,5.56,0
2665327.0,-0.001,-0.012,-0.037,-17.98,178.75,0
2665332.0,-0.006,0.017,-0.056,16.72,174.28,0
2665337.0,0.033,-0.005,-0.006,-8.08,-99.55,0
2665342.0,-0.039,0.005,-0.029,5.68,126.98,0
2665347.0,0.016,0.007,-0.003,24.07,-101.04,0
2665352.0,-0.013,-0.019,0.026,-33.68,26.49,0
2665357.0,-0.037,0.022,-0.008,29.94,102.15,0
2665362.0,-0.013,0.014,-0.006,46.09,113.33,0
2665367.0,-0.01,0.034,0.016,60.38,32.89,0
2665372.0,0.038,0.019,0.023,23.56,-58.24,0
2665377.0,0.009,0.007,0.009,30.21,-44.74,0
2665382.0,-0.01,-0.002,-0.001,-12.55,93.96,0
2665387.0,0.023,0.007,0.035,9.78,-33.33,0
2665392.0,-0.025,0.026,-0.034,32.02,144.15,0
2665397.0,-0.039,0.024,-0.013,30.3,107.98,0
2665402.0,0.023,0.012,-0.013,24.54,-118.74,0
2665407.0,-0.025,0.002,-0.02,4.46,128.77,0
2665412.0,0.021,0.022,-0.01,43.04,-116.39,0
2665417.0,-0.02,-0.002,0.009,-6.05,66.06,0
2665422.0,0.006,-0.005,0.011,-20.0,-29.57,0
2665427.0,-0.003,-0.012,0.028,-22.87,6.5,0
2665432.0,0.014,0.0,-0.01,0.27,-127.19,0
2665437.0,0.018,0.002,0.042,3.07,-23.42,0
2665442.0,-0.006,0.024,0.023,45.16,13.53,0
2665447.0,0.006,0.019,0.004,68.51,-57.49,0
2665452.0,0.014,-0.009,0.018,-22.53,-36.35,0
2665457.0,0.004,-0.002,-0.02,-6.51,-168.65,0
2665462.0,0.002,-0.002,0.021,-6.32,-4.38,0
2665467.0,0.004,-0.009,0.028,-18.55,-8.11,0
2665472.0,0.006,0.007,0.04,10.17,-9.07,0
2665477.0,0.004,0.014,0.002,73.32,-67.22,0
2665482.0,0.011,0.022,0.014,50.8,-39.31,0
2665487.0,-0.008,0.026,0.04,32.94,11.29,0
2665492.0,0.009,-0.005,-0.017,-13.54,-153.33,0
2665497.0,-0.01,0.029,-0.02,52.11,152.43,0
2665502.0,-0.01,0.002,-0.008,10.74,127.29,0
2665507.0,-0.022,-0.017,-0.001,-36.72,91.84,0
2665512.0,0.026,0.014,0.011,27.37,-66.22,0
2665517.0,0.011,-0.002,0.028,-4.39,-21.75,0
2665522.0,0.002,0.0,0.002,1.98,-43.61,0
2665527.0,0.011,-0.017,0.04,-21.89,-15.61,0
2665532.0,0.011,0.007,0.006,29.36,-59.95,0
2665537.0,-0.008,-0.002,0.016,-7.36,26.45,0
2665542.0,-0.003,0.017,-0.001,79.0,102.69,0
2665547.0,-0.001,0.005,0.011,23.34,4.06,0
2665552.0,0.011,0.019,-0.041,24.15,-164.9,0
2665557.0,0.004,0.012,-0.01,47.5,-158.82,0
2665562.0,-0.001,0.01,0.002,79.12,25.47,0
2665567.0,-0.001,0.022,0.009,67.65,5.15,0
2665572.0,-0.02,0.002,-0.008,6.58,111.6,0
2665577.0,0.016,-0.002,0.004,-8.0,-75.7,0
2665582.0,-0.015,-0.012,-0.006,-36.39,109.96,0
2665587.0,0.009,0.019,-0.01,54.87,-139.55,0
2665592.0,-0.008,-0.005,0.04,-6.59,11.29,0
2665597.0,-0.006,0.041,0.042,43.65,7.51,0
2665602.0,0.014,-0.007,-0.015,-19.29,-138.03,0
2665607.0,-0.025,0.024,-0.015,39.66,121.37,0
2665612.0,-0.013,0.029,0.011,59.43,48.61,0
2665617.0,0.011,0.007,0.004,31.42,-69.99,0
2665622.0,-0.018,-0.043,0.018,-59.38,43.6,0
2665627.0,-0.001,-0.017,-0.003,-79.09,165.62,0
2665632.0,-0.01,-0.005,0.014,-15.36,37.25,0
2665637.0,0.004,0.014,-0.008,58.5,-153.2,0
2665642.0,-0.003,0.034,0.004,81.25,38.11,0
2665647.0,0.011,-0.009,-0.029,-16.78,-159.22,0
2665652.0,-0.015,-0.038,-0.008,-65.9,117.52,0
2665657.0,0.004,-0.009,-0.01,-40.7,-158.82,0
2665662.0,-0.008,0.022,0.009,61.13,42.02,0
2665667.0,-0.022,-0.002,-0.001,-5.91,91.84,0
2665672.0,-0.003,0.007,0.011,31.84,15.84,0
2665677.0,-0.003,0.029,0.004,79.82,38.11,0
2665682.0,-0.001,0.022,-0.022,44.15,177.95,0
2665687.0,-0.027,0.026,-0.022,36.96,129.37,0
2665692.0,-0.003,0.041,-0.022,61.12,171.84,0
2665697.0,-0.01,0.007,-0.027,14.07,159.02,0
2665702.0,-0.013,0.034,0.011,63.14,48.61,0
2665707.0,-0.02,0.019,0.052,19.07,21.01,0
2665712.0,0.002,0.0,-0.027,0.17,-176.62,0
2665717.0,0.011,0.0,-0.044,0.1,-165.69,0
2665722.0,0.004,0.026,-0.025,46.6,-170.81,0
2665727.0,-0.03,-0.002,0.004,-4.44,82.15,0
2665732.0,0.004,-0.012,-0.01,-47.12,-158.82,0
2665737.0,-0.001,0.0,-0.015,0.3,176.97,0
2665742.0,0.014,0.01,-0.015,25.45,-138.03,0
2665747.0,0.002,0.005,-0.022,12.3,-175.9,0
2665752.0,-0.003,-0.007,0.002,-63.09,62.31,0
2665757.0,0.009,-0.012,0.009,-43.64,-44.74,0
2665762.0,0.006,0.01,0.006,46.75,-44.65,0
2665767.0,0.004,0.0,-0.039,0.12,-174.16,0
2665772.0,0.016,-0.009,0.023,-18.62,-34.5,0
2665777.0,0.009,-0.033,0.009,-69.55,-44.74,0
2665782.0,0.006,0.017,0.014,48.18,-25.07,0
2665787.0,-0.001,0.022,0.028,37.66,1.63,0
2665792.0,0.023,0.012,0.014,24.16,-59.48,0
2665797.0,-0.001,-0.009,-0.034,-15.5,178.66,0
2665802.0,0.026,0.029,-0.003,48.24,-96.95,0
2665807.0,0.03,-0.007,0.002,-13.16,-86.84,0
2665812.0,-0.015,0.031,0.011,58.82,53.42,0
2665817.0,0.011,-0.024,-0.053,-23.63,-168.18,0
2665822.0,-0.02,0.031,-0.003,57.09,98.87,0
2665827.0,-0.013,0.019,-0.025,34.71,152.63,0
2665832.0,-0.015,0.036,-0.029,47.38,152.76,0
2665837.0,-0.006,-0.033,0.05,-33.84,6.43,0
2665842.0,-0.001,-0.012,0.038,-17.55,1.22,0
2665847.0,-0.027,0.01,0.035,12.26,37.63,0
2665852.0,0.014,-0.012,0.009,-36.27,-56.86,0
2665857.0,-0.003,0.017,0.014,50.23,13.17,0
2665862.0,0.006,-0.033,0.04,-39.55,-9.07,0
2665867.0,0.014,-0.024,-0.022,-42.46,-148.65,0
2665872.0,0.011,0.0,0.026,0.16,-23.56,0
2665877.0,-0.022,0.002,-0.034,3.46,146.87,0
2665882.0,-0.022,0.01,0.018,18.44,50.48,0
2665887.0,-0.008,-0.012,0.006,-49.18,50.99,0
2665892.0,-0.02,-0.007,0.05,-7.57,21.93,0
2665897.0,-0.003,-0.014,0.009,-56.61,19.82,0
2665902.0,0.006,0.014,-0.02,34.69,-162.19,0
2665907.0,0.016,0.038,-0.01,63.67,-122.82,0
2665912.0,0.028,0.019,0.018,29.89,-56.58,0
2665917.0,0.018,0.007,-0.001,21.57,-92.24,0
2665922.0,-0.01,0.007,0.03,12.74,18.84,0
2665927.0,0.03,0.012,0.021,18.14,-55.52,0
2665932.0,-0.01,0.012,0.03,20.56,18.84,0
2665937.0,0.018,0.041,-0.02,56.44,-137.27,0
2665942.0,0.018,0.019,0.028,29.87,-33.24,0
2665947.0,0.021,0.014,-0.02,26.69,-133.76,0
2665952.0,0.016,-0.002,0.026,-4.38,-31.93,0
2665957.0,0.006,0.014,-0.001,66.02,-96.43,0
2665962.0,-0.018,0.01,-0.003,28.44,100.05,0
2665967.0,0.009,0.0,-0.044,0.1,-168.67,0
2665972.0,-0.008,-0.002,0.026,-4.93,17.3,0
2665977.0,-0.018,-0.014,0.028,-23.37,32.08,0
2665982.0,0.004,0.002,0.03,4.61,-7.48,0
2665987.0,0.009,-0.031,0.033,-42.44,-14.98,0
2665992.0,-0.03,-0.014,0.009,-24.86,73.3,0
2665997.0,0.018,0.0,0.006,0.24,-70.6,0
2666002.0,-0.006,0.014,0.038,20.81,8.45,0
2666007.0,-0.032,-0.002,-0.032,-2.94,134.93,0
2666012.0,0.014,-0.036,0.006,-67.25,-64.52,0
2666017.0,-0.032,-0.012,0.006,-20.06,78.55,0
2666022.0,-0.001,0.01,-0.015,32.59,176.97,0
2666027.0,0.004,0.019,-0.029,32.91,-172.28,0
2666032.0,0.006,0.005,-0.006,30.0,-130.78,0
2666037.0,0.011,0.01,0.018,24.13,-31.22,0
2666042.0,0.018,-0.024,-0.022,-39.59,-140.5,0
2666047.0,0.026,0.017,0.009,31.92,-70.87,0
2666052.0,0.002,-0.026,-0.013,-64.03,-172.83,0
2666057.0,0.004,-0.014,-0.003,-70.49,-127.96,0
2666062.0,0.011,0.0,-0.006,0.37,-116.24,0
2666067.0,0.009,0.007,0.009,30.21,-44.74,0
2666072.0,0.009,0.017,0.009,53.48,-44.74,0
2666077.0,-0.03,-0.005,-0.034,-5.95,139.22,0
2666082.0,-0.001,0.014,0.002,82.68,25.47,0
2666087.0,-0.039,0.029,0.021,33.03,61.96,0
2666092.0,0.004,-0.026,-0.01,-67.19,-158.82,0
2666097.0,0.006,-0.007,0.062,-6.55,-5.92,0
2666102.0,-0.013,0.014,0.05,15.76,14.45,0
2666107.0,0.018,-0.012,-0.037,-16.18,-153.39,0
2666112.0,-0.027,-0.024,-0.022,-34.21,129.37,0
2666117.0,0.023,0.0,0.04,0.1,-30.06,0
2666122.0,-0.037,-0.021,0.009,-29.62,76.43,0
2666127.0,0.009,-0.014,0.028,-25.95,-17.4,0
2666132.0,-0.025,0.005,0.006,10.78,75.36,0
2666137.0,0.011,0.031,-0.017,56.39,-147.41,0
2666142.0,-0.03,0.029,-0.061,23.15,154.01,0
2666147.0,-0.03,0.034,0.006,48.02,77.65,0
2666152.0,0.016,-0.005,0.023,-9.49,-34.5,0
2666157.0,-0.013,0.0,0.035,0.12,19.94,0
2666162.0,-0.015,-0.026,-0.017,-48.61,139.06,0
2666167.0,0.004,0.022,-0.008,67.74,-153.2,0
2666172.0,-0.018,0.022,0.028,33.19,32.08,0
2666177.0,0.026,-0.021,0.014,-36.55,-61.88,0
2666182.0,-0.032,0.0,0.026,0.11,51.25,0
2666187.0,-0.006,-0.014,0.006,-59.12,40.84,0
2666192.0,0.03,0.022,-0.01,34.03,-108.75,0
2666197.0,-0.001,-0.009,0.026,-20.33,1.78,0
2666202.0,-0.049,0.007,0.023,7.67,64.5,0
2666207.0,0.009,-0.029,-0.02,-52.83,-156.17,0
2666212.0,0.014,-0.021,0.006,-55.01,-64.52,0
2666217.0,-0.03,0.007,0.033,9.34,42.0,0
2666222.0,0.014,-0.019,0.009,-49.65,-56.86,0
2666227.0,0.028,-0.021,-0.022,-31.0,-128.56,0
2666232.0,-0.001,0.002,0.016,8.76,2.85,0
2666237.0,0.011,0.026,0.04,32.47,-15.61,0
2666242.0,0.009,0.01,0.028,18.21,-17.4,0
2666247.0,0.009,0.007,-0.025,15.51,-160.41,0
2666252.0,0.006,0.017,-0.017,42.14,-159.93,0
2666257.0,-0.01,0.041,-0.003,75.13,106.7,0
2666262.0,0.014,0.01,-0.015,25.45,-138.03,0
2666267.0,-0.041,0.019,-0.022,22.21,118.22,0
2666272.0,-0.032,0.017,0.004,27.62,82.74,0
2666277.0,0.021,0.007,0.035,10.08,-30.52,0
2666282.0,-0.032,0.002,-0.015,4.01,115.29,0
2666287.0,-0.003,0.036,0.021,59.65,8.71,0
2666292.0,-0.015,0.01,0.038,13.4,21.97,0
2666297.0,0.03,0.024,0.047,23.19,-32.74,0
2666302.0,-0.003,-0.017,-0.053,-17.32,176.58,0
2666307.0,0.014,-0.019,0.035,-26.82,-21.08,0
2666312.0,-0.013,-0.019,0.006,-53.12,63.15,0
2666317.0,0.002,-0.017,0.004,-75.31,-21.42,0
2666322.0,-0.006,0.01,0.004,54.41,53.93,0
2666327.0,0.011,0.034,-0.01,65.67,-132.66,0
2666332.0,-0.013,0.01,-0.034,14.8,159.55,0
2666337.0,0.004,0.022,0.028,37.39,-8.11,0
2666342.0,0.004,-0.026,0.04,-33.16,-5.7,0
2666347.0,-0.01,0.041,-0.017,63.51,149.31,0
2666352.0,-0.01,0.005,-0.017,13.47,149.31,0
2666357.0,0.006,0.026,0.028,42.6,-12.84,0
2666362.0,-0.015,0.01,0.021,20.55,36.05,0
2666367.0,-0.006,-0.009,0.002,-58.44,73.3,0
2666372.0,-0.013,0.0,-0.01,0.28,128.88,0
2666377.0,-0.022,0.024,0.023,36.7,43.9,0
2666382.0,0.023,-0.005,0.059,-4.24,-21.37,0
2666387.0,0.009,0.0,-0.01,0.34,-139.55,0
2666392.0,-0.013,0.022,0.021,41.52,31.51,0
2666397.0,-0.034,0.019,0.018,26.28,61.76,0
2666402.0,0.004,-0.012,-0.039,-16.86,-174.16,0
2666407.0,-0.006,-0.024,0.002,-76.27,73.3,0
2666412.0,-0.006,-0.009,0.009,-42.2,32.24,0
2666417.0,0.014,0.007,0.016,19.07,-40.22,0
2666422.0,-0.008,0.0,-0.001,0.57,95.15,0
2666427.0,0.026,0.0,-0.001,0.18,-91.61,0
2666432.0,0.011,-0.021,0.016,-47.68,-34.86,0
2666437.0,-0.03,-0.002,0.023,-3.53,51.82,0
2666442.0,0.006,0.005,0.035,7.75,-10.28,0
2666447.0,-0.003,0.014,-0.013,47.83,165.88,0
2666452.0,0.016,0.01,-0.053,9.83,-163.36,0
2666457.0,0.002,0.014,0.038,21.0,-2.43,0
2666462.0,-0.003,-0.009,0.03,-17.26,5.99,0
2666467.0,0.006,0.005,0.002,36.41,-75.29,0
2666472.0,-0.006,-0.009,0.009,-42.2,32.24,0
2666477.0,-0.001,-0.005,0.033,-8.17,1.39,0
2666482.0,0.014,0.046,0.028,55.67,-25.84,0
2666487.0,-0.003,0.034,0.018,60.89,9.82,0
2666492.0,0.004,-0.012,-0.027,-23.5,-171.61,0
2666497.0,-0.037,0.043,-0.017,46.72,115.46,0
2666502.0,0.057,0.026,-0.003,24.96,-93.14,0
2666507.0,-0.063,-0.017,-0.01,-14.63,99.27,0
2666512.0,0.028,0.034,-0.003,50.09,-96.36,0
2666517.0,0.066,0.019,0.038,14.17,-60.43,0
2666522.0,-0.068,-0.029,0.016,-22.34,76.7,0
2666527.0,0.059,0.0,-0.01,0.08,-99.89,0
2666532.0,-0.046,-0.019,-0.01,-21.91,102.54,0
2666537.0,0.052,-0.021,-0.013,-21.9,-103.75,0
2666542.0,-0.022,-0.002,-0.003,-5.86,97.93,0
2666547.0,-0.034,-0.014,0.03,-17.31,48.46,0
2666552.0,0.038,-0.019,0.004,-26.82,-83.81,0
2666557.0,-0.003,0.014,0.021,34.43,8.71,0
2666562.0,-0.065,-0.026,0.021,-20.92,72.34,0
2666567.0,0.033,-0.021,0.018,-29.75,-60.6,0
2666572.0,-0.044,0.01,-0.02,11.33,114.36,0
2666577.0,-0.01,-0.005,0.004,-22.9,68.58,0
2666582.0,0.016,0.024,0.014,48.84,-49.47,0
2666587.0,0.006,0.014,-0.015,41.41,-157.06,0
2666592.0,0.016,0.012,0.016,28.04,-44.86,0
2666597.0,-0.003,0.024,-0.015,57.31,168.05,0
2666602.0,-0.015,0.01,0.018,22.03,39.44,0
2666607.0,-0.03,0.029,0.014,41.53,65.2,0
2666612.0,0.038,0.0,-0.008,0.12,-101.9,0
2666617.0,-0.018,0.0,0.042,0.1,22.51,0
2666622.0,-0.049,-0.017,-0.001,-18.91,90.85,0
2666627.0,-0.003,0.017,0.03,28.85,5.99,0
2666632.0,-0.065,0.014,-0.006,12.41,94.81,0
2666637.0,0.033,0.031,-0.022,38.25,-124.24,0
2666642.0,-0.025,0.019,0.018,31.94,53.31,0
2666647.0,0.009,0.002,0.014,8.67,-32.75,0
2666652.0,0.03,0.002,0.009,4.48,-73.72,0
2666657.0,-0.015,0.005,0.023,9.96,33.14,0
2666662.0,0.04,0.007,0.014,9.77,-71.12,0
2666667.0,-0.018,0.012,0.021,23.86,40.13,0
2666672.0,0.066,-0.005,0.021,-3.88,-72.54,0
2666677.0,-0.01,0.007,-0.008,29.11,127.29,0
2666682.0,0.023,-0.002,-0.008,-5.41,-108.85,0
2666687.0,-0.032,0.0,0.011,0.14,70.58,0
2666692.0,0.028,-0.007,-0.029,-9.93,-136.51,0
2666697.0,-0.001,-0.005,-0.029,-9.08,178.45,0
2666702.0,-0.001,0.0,-0.006,0.82,171.75,0
2666707.0,0.018,-0.033,-0.003,-60.89,-99.62,0
2666712.0,-0.032,0.01,-0.003,16.76,95.57,0
2666717.0,0.004,0.029,-0.022,51.86,-169.84,0
2666722.0,-0.025,0.026,-0.013,43.53,117.15,0
2666727.0,-0.01,0.034,-0.032,45.09,161.95,0
2666732.0,0.002,-0.002,-0.029,-4.49,-176.9,0
2666737.0,0.016,0.019,0.071,14.78,-12.65,0
2666742.0,-0.01,0.007,0.016,20.82,32.89,0
2666747.0,-0.001,0.012,-0.02,31.21,177.7,0
2666752.0,-0.001,0.012,0.033,20.17,1.39,0
2666757.0,-0.008,-0.012,0.035,-18.24,12.78,0
2666762.0,0.045,0.005,-0.02,5.68,-113.97,0
2666767.0,-0.049,-0.007,-0.001,-8.3,90.85,0
2666772.0,-0.006,0.005,0.021,12.72,15.01,0
2666777.0,0.011,-0.043,0.004,-74.55,-69.99,0
2666782.0,-0.02,-0.017,-0.02,-30.64,134.89,0
2666787.0,-0.013,-0.005,0.011,-15.46,48.61,0
2666792.0,-0.001,-0.009,-0.027,-19.33,178.31,0
2666797.0,-0.022,0.005,0.002,12.26,85.71,0
2666802.0,-0.001,0.026,0.018,55.07,2.48,0
2666807.0,-0.022,0.019,0.047,20.23,25.35,0
2666812.0,-0.02,0.026,0.004,52.37,78.47,0
2666817.0,-0.001,0.029,-0.022,52.28,177.95,0
2666822.0,-0.01,0.005,0.016,14.3,32.89,0
2666827.0,0.011,0.012,0.014,34.34,-39.31,0
2666832.0,0.009,0.017,-0.015,43.98,-149.8,0
2666837.0,0.002,-0.005,-0.046,-5.81,-178.02,0
2666842.0,0.028,0.014,0.016,24.15,-60.13,0
2666847.0,-0.027,-0.005,-0.039,-5.66,145.19,0
2666852.0,0.018,0.017,-0.008,40.12,-113.29,0
2666857.0,-0.001,-0.012,0.011,-46.51,4.06,0
2666862.0,-0.001,-0.019,0.016,-49.9,2.85,0
2666867.0,0.038,-0.031,-0.008,-39.0,-101.9,0
2666872.0,-0.008,-0.007,0.028,-13.7,15.9,0
2666877.0,-0.025,-0.009,0.011,-19.26,65.54,0
2666882.0,0.009,-0.014,-0.02,-33.33,-156.17,0
2666887.0,-0.02,-0.007,0.016,-15.51,51.2,0
2666892.0,0.006,-0.012,0.009,-47.44,-35.78,0
2666897.0,-0.022,0.005,-0.01,11.19,114.74,0
2666902.0,0.028,0.017,-0.044,17.96,-147.48,0
2666907.0,-0.02,0.029,-0.003,54.97,98.87,0
2666912.0,0.016,0.029,0.026,43.67,-31.93,0
2666917.0,-0.003,0.012,0.016,36.38,11.26,0
2666922.0,0.006,-0.012,-0.02,-29.67,-162.19,0
2666927.0,-0.003,-0.019,0.023,-39.13,7.83,0
2666932.0,-0.008,0.0,0.002,0.56,78.14,0
2666937.0,0.011,-0.007,0.018,-18.24,-31.22,0
2666942.0,-0.03,0.019,-0.003,32.93,96.02,0
2666947.0,-0.006,0.005,0.045,6.16,7.11,0
2666952.0,0.028,0.0,-0.027,0.12,-134.09,0
2666957.0,-0.001,0.012,0.004,71.01,11.1,0
2666962.0,0.009,0.017,-0.027,30.63,-162.02,0
2666967.0,0.004,0.007,-0.008,39.37,-153.2,0
2666972.0,-0.006,0.024,-0.015,56.19,159.68,0
2666977.0,0.016,-0.007,0.033,-11.02,-25.95,0
2666982.0,0.002,-0.024,0.016,-55.96,-5.68,0
2666987.0,0.03,0.002,-0.015,4.18,-116.45,0
2666992.0,0.011,0.01,-0.003,39.78,-105.57,0
2666997.0,0.002,-0.029,0.052,-28.86,-1.76,0
2667002.0,-0.008,-0.014,0.009,-50.15,42.02,0
2667007.0,0.018,0.0,-0.037,0.11,-153.39,0
2667012.0,0.006,0.014,-0.003,63.82,-115.99,0
2667017.0,-0.008,0.0,-0.013,0.31,147.83,0
2667022.0,-0.032,0.005,-0.027,6.64,130.28,0
2667027.0,-0.037,0.012,-0.034,13.5,133.0,0
2667032.0,-0.003,-0.007,0.004,-53.94,38.11,0
2667037.0,-0.015,0.01,-0.051,10.29,163.44,0
2667042.0,-0.018,0.019,-0.013,41.6,125.86,0
2667047.0,-0.027,0.022,0.023,31.2,49.44,0
2667052.0,0.018,0.007,-0.037,10.05,-153.39,0
2667057.0,0.002,-0.014,-0.006,-68.13,-163.84,0
2667062.0,0.028,0.01,0.021,15.49,-53.29,0
2667067.0,0.011,0.007,-0.01,25.55,-132.66,0
2667072.0,0.002,-0.012,-0.015,-38.09,-173.96,0
2667077.0,0.006,0.007,0.033,12.26,-11.01,0
2667082.0,0.018,-0.007,-0.013,-17.66,-124.66,0
2667087.0,-0.01,-0.014,-0.027,-26.24,159.02,0
2667092.0,0.016,0.012,0.014,29.85,-49.47,0
2667097.0,-0.01,-0.014,0.05,-15.76,11.82,0
2667102.0,-0.006,0.031,0.004,77.51,53.93,0
2667107.0,0.026,0.005,-0.032,6.8,-141.27,0
2667112.0,-0.013,-0.014,-0.008,-43.57,121.75,0
2667117.0,0.021,0.007,0.004,18.96,-78.9,0
2667122.0,0.026,-0.012,-0.013,-22.64,-116.42,0
2667127.0,-0.032,0.031,0.018,40.25,59.99,0
2667132.0,0.002,0.024,0.014,60.23,-6.67,0
2667137.0,0.004,-0.007,-0.037,-10.91,-173.78,0
2667142.0,-0.022,-0.009,-0.027,-15.14,140.45,0
2667147.0,-0.003,0.017,0.018,41.99,9.82,0
2667152.0,-0.006,0.029,-0.001,78.94,97.33,0
2667157.0,-0.003,0.0,0.021,0.22,8.71,0
2667162.0,-0.013,0.024,0.002,61.8,82.52,0
2667167.0,0.006,0.01,0.033,16.12,-11.01,0
2667172.0,-0.013,0.014,0.028,25.14,24.51,0
2667177.0,-0.025,0.007,-0.017,13.48,125.24,0
2667182.0,-0.018,0.019,0.011,42.69,57.34,0
2667187.0,0.014,0.026,-0.017,50.05,-142.18,0
2667192.0,-0.025,-0.033,0.011,-50.9,65.54,0
2667197.0,0.009,0.024,0.03,37.2,-16.1,0
2667202.0,-0.001,0.022,-0.022,44.15,177.95,0
2667207.0,-0.001,0.0,0.018,0.25,2.48,0
2667212.0,0.006,-0.029,-0.027,-45.86,-166.72,0
2667217.0,0.004,0.007,0.014,27.06,-16.3,0
2667222.0,0.009,0.038,0.026,54.8,-18.92,0
2667227.0,0.028,0.024,0.018,35.67,-56.58,0
2667232.0,-0.001,-0.002,0.009,-14.59,5.15,0
2667237.0,-0.003,-0.005,0.011,-21.93,15.84,0
2667242.0,0.016,0.005,-0.015,12.5,-133.38,0
2667247.0,-0.01,0.034,-0.01,66.49,134.78,0
2667252.0,-0.01,0.024,0.038,31.64,15.43,0
2667257.0,-0.006,0.019,-0.003,71.61,119.13,0
2667262.0,-0.03,-0.002,0.021,-3.66,54.8,0
2667267.0,0.004,-0.021,-0.013,-58.22,-162.54,0
2667272.0,-0.003,0.024,0.009,68.6,19.82,0
2667277.0,0.006,0.024,-0.032,36.49,-168.66,0
2667282.0,-0.006,0.0,0.014,0.31,22.26,0
2667287.0,-0.032,0.019,0.016,28.3,63.32,0
2667292.0,0.016,-0.017,0.009,-42.42,-60.97,0
2667297.0,-0.018,0.007,0.018,15.92,43.6,0
2667302.0,-0.032,-0.002,-0.039,-2.63,140.72,0
2667307.0,0.026,-0.024,0.045,-24.84,-29.7,0
2667312.0,-0.015,-0.005,-0.003,-16.92,101.6,0
2667317.0,-0.02,-0.002,0.004,-6.48,78.47,0
2667322.0,-0.001,-0.005,0.028,-9.54,1.63,0
2667327.0,0.009,-0.002,0.004,-13.45,-65.13,0
2667332.0,-0.013,-0.002,-0.017,-6.1,143.85,0
2667337.0,-0.02,0.012,-0.003,30.83,98.87,0
2667342.0,-0.001,0.019,0.004,77.83,11.1,0
2667347.0,0.006,-0.005,0.023,-11.06,-15.37,0
2667352.0,-0.01,-0.005,-0.01,-17.86,134.78,0
2667357.0,-0.039,0.005,-0.01,6.86,104.75,0
2667362.0,-0.022,0.007,0.009,16.81,68.38,0
2667367.0,0.002,0.019,-0.001,84.8,-114.25,0
2667372.0,0.021,-0.009,0.009,-22.83,-66.88,0
2667377.0,-0.013,0.024,0.026,40.0,26.49,0
2667382.0,0.021,0.002,-0.001,6.8,-91.98,0
2667387.0,0.006,-0.019,0.033,-29.72,-11.01,0
2667392.0,-0.006,-0.014,0.014,-44.09,22.26,0
2667397.0,0.021,0.005,0.045,5.63,-24.87,0
2667402.0,0.006,0.0,0.026,0.17,-13.99,0
2667407.0,-0.01,-0.005,0.023,-10.49,24.07,0
2667412.0,0.004,0.022,0.006,70.65,-31.69,0
2667417.0,0.014,-0.014,-0.006,-44.29,-112.09,0
2667422.0,0.002,-0.014,-0.017,-39.14,-174.78,0
2667427.0,0.002,-0.031,-0.003,-83.57,-152.85,0
2667432.0,-0.034,0.041,0.002,49.89,87.2,0
2667437.0,0.002,-0.002,-0.01,-12.52,-171.19,0
2667442.0,-0.027,0.024,-0.003,41.33,96.54,0
2667447.0,-0.01,0.01,0.028,17.92,20.32,0
2667452.0,-0.027,0.019,-0.013,32.7,115.06,0
2667457.0,0.018,0.031,-0.044,33.3,-157.27,0
2667462.0,-0.008,0.017,0.042,21.33,10.67,0
2667467.0,0.006,0.012,0.026,24.53,-13.99,0
2667472.0,-0.015,-0.019,0.018,-38.63,39.44,0
2667477.0,-0.008,0.019,-0.017,45.03,155.46,0
2667482.0,0.006,-0.005,0.011,-20.0,-29.57,0
2667487.0,0.023,-0.017,0.014,-31.83,-59.48,0
2667492.0,0.002,-0.024,-0.037,-33.05,-177.51,0
2667497.0,-0.025,0.031,0.028,39.86,41.45,0
2667502.0,0.009,0.022,-0.003,66.7,-109.52,0
2667507.0,-0.001,-0.012,-0.025,-25.73,178.15,0
2667512.0,-0.015,-0.005,0.018,-11.16,39.44,0
2667517.0,0.016,0.002,0.045,2.98,-19.62,0
2667522.0,-0.018,0.031,0.023,46.99,37.09,0
2667527.0,-0.01,-0.012,0.002,-48.53,80.83,0
2667532.0,0.006,-0.014,0.026,-28.42,-13.99,0
2667537.0,0.014,-0.002,0.033,-3.73,-22.47,0
2667542.0,-0.01,-0.009,0.028,-17.64,20.32,0
2667547.0,0.026,0.017,0.018,28.13,-54.18,0
2667552.0,-0.025,0.012,0.054,11.41,24.48,0
2667557.0,-0.003,-0.014,-0.015,-42.82,168.05,0
2667562.0,-0.01,-0.005,-0.006,-21.84,117.96,0
2667567.0,0.002,0.026,0.016,58.61,-5.68,0
2667572.0,-0.022,0.0,0.016,0.17,54.33,0
2667577.0,0.009,0.017,0.023,34.15,-20.71,0
2667582.0,-0.025,0.034,0.014,49.94,61.12,0
2667587.0,-0.013,0.024,0.009,57.1,55.25,0
2667592.0,0.023,0.038,0.002,58.85,-85.86,0
2667597.0,0.002,0.005,0.018,14.74,-4.95,0
2667602.0,0.002,-0.012,0.018,-32.73,-4.95,0
2667607.0,0.004,0.005,-0.027,10.09,-171.61,0
2667612.0,0.009,-0.012,-0.02,-28.69,-156.17,0
2667617.0,-0.015,-0.005,-0.02,-10.67,142.66,0
2667622.0,-0.013,0.026,-0.049,27.73,165.28,0
2667627.0,0.004,0.022,-0.027,38.34,-171.61,0
2667632.0,-0.03,0.022,-0.025,29.34,129.87,0
2667637.0,-0.006,-0.005,-0.008,-25.95,144.74,0
2667642.0,-0.053,0.019,-0.02,18.63,110.39,0
2667647.0,0.026,0.012,0.009,24.03,-70.87,0
2667652.0,0.006,-0.033,0.002,-78.83,-75.29,0
2667657.0,-0.022,-0.041,-0.037,-43.43,148.62,0
2667662.0,-0.008,-0.002,0.002,-15.84,78.14,0
2667667.0,-0.02,0.0,0.023,0.15,40.67,0
2667672.0,-0.001,0.0,0.023,0.2,1.97,0
2667677.0,0.023,0.012,-0.001,27.49,-91.78,0
2667682.0,-0.022,-0.009,0.035,-12.83,32.41,0
2667687.0,0.016,0.038,-0.02,56.42,-141.23,0
2667692.0,-0.013,0.019,0.018,40.62,34.71,0
2667697.0,0.006,-0.014,-0.01,-49.7,-148.2,0
2667702.0,0.016,-0.007,-0.006,-22.81,-109.04,0
2667707.0,-0.008,0.007,-0.01,29.14,142.22,0
2667712.0,-0.013,-0.009,0.006,-33.57,63.15,0
2667717.0,-0.025,-0.017,0.033,-22.1,37.03,0
2667722.0,-0.01,0.007,0.004,33.09,68.58,0
2667727.0,0.011,-0.012,0.026,-23.05,-23.56,0
2667732.0,-0.008,0.024,-0.008,64.94,134.71,0
2667737.0,-0.018,0.005,0.014,12.35,52.14,0
2667742.0,-0.006,0.017,-0.008,60.12,144.74,0
2667747.0,0.006,-0.009,-0.025,-20.45,-165.49,0
2667752.0,-0.018,0.007,-0.029,11.96,149.2,0
2667757.0,0.011,-0.021,0.033,-31.78,-18.81,0
2667762.0,0.002,-0.009,0.021,-24.45,-4.38,0
2667767.0,-0.034,-0.009,-0.058,-8.0,149.47,0
2667772.0,-0.01,-0.038,-0.044,-40.33,166.68,0
2667777.0,-0.001,-0.005,-0.003,-55.69,165.62,0
2667782.0,-0.027,-0.026,-0.01,-42.14,110.78,0
2667787.0,-0.008,0.002,0.002,16.88,78.14,0
2667792.0,0.016,0.026,0.018,47.29,-40.89,0
2667797.0,-0.013,0.01,-0.013,28.21,134.82,0
2667802.0,-0.01,0.01,-0.027,18.43,159.02,0
2667807.0,0.016,0.034,0.011,59.83,-54.82,0
2667812.0,-0.001,0.005,0.004,49.58,11.1,0
2667817.0,-0.001,0.019,-0.022,40.8,177.95,0
2667822.0,0.009,0.017,0.016,42.64,-28.69,0
2667827.0,0.018,-0.012,0.011,-28.91,-58.49,0
2667832.0,-0.013,-0.019,-0.006,-53.91,113.33,0
2667837.0,-0.001,-0.021,0.009,-67.5,5.15,0
2667842.0,0.014,0.019,0.011,47.5,-50.33,0
2667847.0,-0.001,0.005,0.016,16.86,2.85,0
2667852.0,-0.013,-0.002,-0.034,-3.62,159.55,0
2667857.0,0.023,-0.029,0.004,-50.64,-80.03,0
2667862.0,0.023,0.029,0.002,51.15,-85.86,0
2667867.0,0.004,0.005,-0.015,17.33,-165.18,0
2667872.0,0.006,-0.005,0.014,-17.36,-25.07,0
2667877.0,-0.013,0.024,0.009,57.1,55.25,0
2667882.0,-0.027,-0.021,0.006,-37.58,76.6,0
2667887.0,0.033,0.017,-0.006,26.91,-99.55,0
2667892.0,-0.018,-0.017,0.004,-42.78,76.95,0
2667897.0,-0.013,0.022,0.05,22.91,14.45,0
2667902.0,0.011,0.01,-0.032,15.97,-160.67,0
2667907.0,-0.003,-0.005,-0.032,-8.37,174.28,0
2667912.0,-0.032,-0.002,0.035,-2.79,42.21,0
2667917.0,-0.018,0.014,-0.063,12.46,164.42,0
2667922.0,-0.01,0.017,0.026,31.35,22.05,0
2667927.0,-0.025,0.002,-0.037,3.2,145.97,0
2667932.0,0.002,0.017,0.002,82.18,-43.61,0
2667937.0,-0.013,0.01,-0.015,26.04,139.75,0
2667942.0,-0.018,0.029,-0.003,58.25,100.05,0
2667947.0,-0.01,-0.002,0.05,-2.62,11.82,0
2667952.0,-0.001,0.002,0.004,30.82,11.1,0
2667957.0,-0.003,-0.005,-0.013,-19.79,165.88,0
2667962.0,0.009,0.022,0.011,56.58,-37.96,0
2667967.0,0.009,0.038,0.021,59.51,-22.85,0
2667972.0,-0.001,-0.024,-0.022,-46.96,177.95,0
2667977.0,-0.003,0.014,0.011,51.0,15.84,0
2667982.0,0.014,0.014,-0.006,44.61,-112.09,0
2667987.0,-0.01,-0.024,0.018,-48.44,29.37,0
2667992.0,-0.001,-0.009,-0.025,-21.05,178.15,0
2667997.0,0.002,0.005,0.002,64.58,-43.61,0
2668002.0,0.018,0.002,0.045,2.93,-22.29,0
2668007.0,-0.01,0.002,-0.022,5.75,155.02,0
2668012.0,-0.018,-0.026,0.009,-53.17,63.23,0
2668017.0,-0.001,0.012,0.021,30.03,2.19,0
2668022.0,-0.006,-0.009,-0.006,-50.44,134.59,0
2668027.0,-0.025,0.002,0.006,5.53,75.36,0
2668032.0,0.006,-0.005,0.021,-12.2,-17.04,0
2668037.0,-0.003,-0.012,0.021,-29.44,8.71,0
2668042.0,-0.008,0.014,0.011,46.32,35.35,0
2668047.0,-0.018,0.014,0.035,20.17,26.51,0
2668052.0,0.016,0.005,0.002,16.87,-84.01,0
2668057.0,-0.003,-0.009,-0.013,-35.97,165.88,0
2668062.0,-0.003,-0.002,0.009,-13.81,19.82,0
2668067.0,-0.015,0.002,0.002,9.21,83.69,0
2668072.0,0.004,0.012,0.009,51.13,-24.25,0
2668077.0,0.021,0.014,-0.058,13.16,-160.37,0
2668082.0,-0.025,0.017,0.006,33.37,75.36,0
2668087.0,-0.01,0.014,-0.015,38.27,145.48,0
2668092.0,0.018,0.002,0.023,4.78,-38.32,0
2668097.0,-0.032,-0.021,-0.025,-28.02,127.69,0
2668102.0,0.018,-0.021,0.05,-22.11,-20.32,0
2668107.0,0.002,0.014,0.021,34.66,-4.38,0
2668112.0,-0.008,0.036,-0.039,42.1,168.44,0
2668117.0,0.004,0.034,0.004,80.37,-44.44,0
2668122.0,0.002,-0.019,0.03,-32.06,-3.0,0
2668127.0,-0.001,-0.014,0.004,-73.81,11.1,0
2668132.0,0.002,0.0,0.057,0.08,-1.61,0
2668137.0,-0.001,0.0,-0.02,0.23,177.7,0
2668142.0,-0.001,0.002,-0.001,66.53,132.02,0
2668147.0,-0.025,0.005,-0.025,7.93,134.91,0
2668152.0,0.023,0.012,0.006,26.63,-74.4,0
2668157.0,0.011,-0.024,0.018,-47.91,-31.22,0
2668162.0,0.006,0.007,0.023,16.78,-15.37,0
2668167.0,-0.008,0.007,0.006,35.27,50.99,0
2668172.0,-0.025,0.002,-0.003,5.67,97.17,0
2668177.0,-0.008,-0.009,0.016,-27.93,26.45,0
2668182.0,0.002,0.007,-0.006,51.71,-163.84,0
2668187.0,0.021,0.002,0.018,5.09,-48.38,0
2668192.0,0.028,-0.009,0.023,-14.65,-50.26,0
2668197.0,0.006,0.0,0.03,0.15,-11.86,0
2668202.0,-0.003,0.014,0.016,41.45,11.26,0
2668207.0,-0.008,0.022,0.009,61.13,42.02,0
2668212.0,0.028,0.005,0.014,8.9,-63.96,0
2668217.0,-0.013,0.002,0.006,9.81,63.15,0
2668222.0,0.028,-0.021,-0.006,-37.02,-101.15,0
2668227.0,0.018,0.024,-0.003,52.22,-99.62,0
2668232.0,0.009,0.017,0.023,34.15,-20.71,0
2668237.0,0.016,0.0,0.016,0.2,-44.86,0
2668242.0,-0.01,-0.019,0.023,-36.87,24.07,0
2668247.0,0.016,-0.017,0.05,-17.76,-17.85,0
2668252.0,0.002,-0.002,0.006,-19.17,-13.87,0
2668257.0,0.002,0.005,-0.037,7.56,-177.51,0
2668262.0,0.014,0.014,-0.017,33.14,-142.18,0
2668267.0,-0.006,-0.009,0.052,-10.3,6.14,0
2668272.0,-0.013,-0.002,-0.006,-9.45,113.33,0
2668277.0,0.018,0.005,-0.001,14.84,-92.24,0
2668282.0,-0.01,0.005,0.018,12.96,29.37,0
2668287.0,0.014,-0.002,0.009,-8.13,-56.86,0
2668292.0,-0.039,-0.024,-0.032,-25.32,129.16,0
2668297.0,0.016,-0.005,0.042,-5.94,-20.64,0
2668302.0,0.004,0.005,0.028,9.76,-8.11,0
2668307.0,-0.013,0.007,0.014,21.24,43.1,0
2668312.0,0.006,0.024,0.038,32.21,-9.64,0
2668317.0,0.038,0.007,0.018,9.86,-63.83,0
2668322.0,0.002,0.0,-0.025,0.19,-176.3,0
2668327.0,-0.001,0.041,0.014,71.47,3.35,0
2668332.0,0.03,0.005,0.083,3.15,-20.05,0
2668337.0,-0.025,0.019,0.014,34.24,61.12,0
2668342.0,-0.001,0.014,0.03,25.4,1.5,0
2668347.0,-0.003,0.024,-0.01,65.83,162.77,0
2668352.0,0.004,0.024,-0.008,69.77,-153.2,0
2668357.0,-0.025,0.0,0.004,0.18,80.66,0
2668362.0,0.011,0.017,0.006,52.53,-59.95,0
2668367.0,-0.013,-0.007,-0.01,-23.41,128.88,0
2668372.0,0.016,0.0,-0.001,0.29,-92.58,0
2668377.0,-0.015,0.014,0.009,39.44,59.71,0
2668382.0,-0.006,0.019,-0.013,54.21,156.24,0
2668387.0,0.011,-0.002,-0.02,-5.8,-150.65,0
2668392.0,0.006,-0.002,0.004,-17.0,-57.49,0
2668397.0,-0.003,0.0,-0.001,1.4,102.69,0
2668402.0,-0.015,0.01,-0.006,30.9,109.96,0
2668407.0,-0.02,0.026,-0.001,52.92,92.06,0
2668412.0,0.006,0.005,0.03,8.91,-11.86,0
2668417.0,-0.025,0.007,-0.003,16.24,97.17,0
2668422.0,-0.001,-0.002,-0.003,-35.76,165.62,0
2668427.0,-0.039,0.019,0.004,26.07,84.06,0
2668432.0,-0.013,0.014,-0.017,33.72,143.85,0
2668437.0,0.011,-0.009,0.018,-23.78,-31.22,0
2668442.0,0.018,0.012,-0.02,24.01,-137.27,0
2668447.0,-0.027,0.019,0.021,29.35,52.49,0
2668452.0,0.016,0.007,-0.013,19.6,-128.49,0
2668457.0,-0.01,-0.007,0.009,-27.5,49.51,0
2668462.0,-0.003,0.005,-0.008,29.74,158.0,0
2668467.0,0.004,0.017,0.018,41.76,-12.21,0
2668472.0,-0.015,0.038,0.047,37.77,17.82,0
2668477.0,0.014,-0.005,0.009,-16.2,-56.86,0
2668482.0,-0.01,0.014,-0.006,50.88,117.96,0
2668487.0,-0.001,0.005,0.023,11.83,1.97,0
2668492.0,-0.025,0.005,-0.034,6.57,144.15,0
2668497.0,0.009,0.005,-0.022,11.5,-158.48,0
2668502.0,0.021,-0.029,0.021,-44.26,-44.89,0
2668507.0,0.004,0.005,-0.015,17.33,-165.18,0
2668512.0,0.002,-0.002,0.006,-19.17,-13.87,0
2668517.0,0.009,-0.012,-0.025,-24.43,-160.41,0
2668522.0,0.016,-0.014,-0.017,-31.11,-137.6,0
2668527.0,-0.006,0.005,0.028,9.67,11.28,0
2668532.0,-0.044,0.007,0.014,8.98,72.73,0
2668537.0,-0.003,0.002,0.03,4.63,5.99,0
2668542.0,0.004,-0.005,-0.029,-9.0,-172.28,0
2668547.0,0.002,0.007,-0.044,9.41,-177.91,0
2668552.0,0.018,-0.014,0.004,-37.23,-77.5,0
2668557.0,-0.044,0.01,0.018,11.47,67.22,0
2668562.0,0.002,0.031,-0.022,54.42,-175.9,0
2668567.0,0.002,0.0,0.009,0.51,-10.21,0
2668572.0,-0.027,0.036,0.011,50.78,67.48,0
2668577.0,0.011,0.007,0.018,18.62,-31.22,0
2668582.0,-0.008,-0.021,-0.003,-68.25,111.31,0
2668587.0,0.006,0.022,-0.006,68.7,-130.78,0
2668592.0,0.011,0.036,0.035,44.27,-17.61,0
2668597.0,-0.01,0.014,-0.015,38.27,145.48,0
2668602.0,0.002,-0.012,0.033,-19.91,-2.79,0
2668607.0,0.004,0.036,-0.01,72.94,-158.82,0
2668612.0,-0.006,0.002,-0.039,3.59,171.85,0
2668617.0,-0.008,0.012,-0.02,29.37,158.12,0
2668622.0,0.006,0.01,0.004,51.9,-57.49,0
2668627.0,0.009,-0.026,-0.017,-53.32,-153.33,0
2668632.0,0.002,-0.017,0.011,-55.73,-8.07,0
2668637.0,0.018,0.005,-0.01,13.02,-119.29,0
2668642.0,-0.001,0.017,-0.01,58.48,175.57,0
2668647.0,-0.001,0.0,-0.037,0.12,178.75,0
2668652.0,0.002,-0.002,0.006,-19.17,-13.87,0
2668657.0,-0.049,0.005,-0.025,5.1,116.87,0
2668662.0,0.038,0.041,-0.039,36.99,-136.14,0
2668667.0,-0.03,0.007,-0.01,13.07,109.22,0
2668672.0,-0.003,-0.002,0.033,-4.02,5.56,0
2668677.0,0.011,0.026,-0.001,67.03,-93.68,0
2668682.0,-0.018,0.014,-0.013,33.7,125.86,0
2668687.0,0.045,-0.014,0.014,-17.0,-73.02,0
2668692.0,-0.046,0.01,0.011,11.46,76.34,0
2668697.0,-0.027,-0.009,-0.013,-17.59,115.06,0
2668702.0,0.047,0.029,-0.006,31.29,-96.67,0
2668707.0,-0.032,0.024,0.033,27.69,44.22,0
2668712.0,0.026,0.024,0.002,43.19,-86.25,0
2668717.0,-0.039,-0.005,0.021,-6.07,61.96,0
2668722.0,0.023,0.019,0.028,27.89,-39.56,0
2668727.0,0.038,0.019,0.042,18.77,-41.51,0
2668732.0,-0.022,-0.005,-0.02,-8.95,131.65,0
2668737.0,0.042,-0.024,-0.001,-29.43,-90.97,0
2668742.0,-0.02,0.022,0.028,32.17,35.46,0
2668747.0,0.028,0.01,0.006,18.61,-76.97,0
2668752.0,-0.001,0.012,-0.017,34.56,177.39,0
2668757.0,-0.008,0.017,0.002,64.16,78.14,0
2668762.0,-0.01,-0.021,-0.003,-63.23,106.7,0
2668767.0,-0.018,-0.009,0.018,-20.46,43.6,0
2668772.0,0.014,-0.005,0.035,-7.12,-21.08,0
2668777.0,-0.013,-0.031,-0.006,-65.87,113.33,0
2668782.0,-0.001,-0.017,-0.008,-64.54,174.23,0
2668787.0,0.014,0.024,0.002,60.36,-82.96,0
2668792.0,0.004,0.002,-0.013,10.54,-162.54,0
2668797.0,-0.006,0.019,0.021,41.73,15.01,0
2668802.0,0.009,0.01,0.004,44.94,-65.13,0
2668807.0,-0.022,0.002,-0.044,2.88,152.98,0
2668812.0,0.021,0.012,-0.044,13.96,-154.66,0
2668817.0,-0.003,0.014,-0.003,72.85,134.28,0
2668822.0,-0.01,0.029,-0.02,52.11,152.43,0
2668827.0,0.004,-0.038,0.028,-53.49,-8.11,0
2668832.0,0.026,-0.005,-0.029,-6.89,-139.07,0
2668837.0,-0.013,0.007,0.011,23.11,48.61,0
2668842.0,-0.01,-0.014,0.006,-49.45,58.08,0
2668847.0,-0.003,-0.026,-0.01,-67.68,162.77,0
2668852.0,0.018,0.007,0.002,21.51,-84.78,0
2668857.0,-0.02,0.026,0.018,44.2,47.26,0
2668862.0,0.026,-0.009,-0.022,-15.66,-131.09,0
2668867.0,-0.006,-0.038,-0.015,-67.18,159.68,0
2668872.0,-0.001,0.01,0.014,35.24,3.35,0
2668877.0,0.004,-0.014,0.026,-28.85,-8.85,0
2668882.0,-0.013,0.024,0.016,49.52,38.52,0
2668887.0,0.004,-0.007,-0.01,-32.75,-158.82,0
2668892.0,-0.008,0.01,0.014,31.42,30.32,0
2668897.0,-0.008,-0.021,-0.015,-51.52,152.12,0
2668902.0,-0.032,0.007,-0.01,12.22,107.88,0
2668907.0,-0.015,0.014,0.014,35.3,48.01,0
2668912.0,-0.022,0.005,0.011,11.01,63.27,0
2668917.0,0.016,-0.019,-0.027,-31.27,-149.46,0
2668922.0,-0.018,0.01,0.026,17.27,34.43,0
2668927.0,-0.01,0.005,0.026,9.99,22.05,0
2668932.0,0.009,-0.009,-0.01,-35.06,-139.55,0
2668937.0,-0.018,0.041,-0.006,65.71,107.42,0
2668942.0,0.014,0.012,-0.003,40.88,-102.92,0
2668947.0,-0.008,0.007,0.026,15.15,17.3,0
2668952.0,-0.025,-0.005,0.016,-9.07,57.04,0
2668957.0,-0.015,0.005,-0.006,16.79,109.96,0
2668962.0,0.014,0.002,0.045,3.03,-16.86,0
2668967.0,0.038,0.012,-0.015,16.6,-111.91,0
2668972.0,-0.037,-0.007,-0.013,-10.36,109.07,0
2668977.0,0.014,-0.005,0.004,-18.39,-73.3,0
2668982.0,-0.013,-0.005,0.009,-16.86,55.25,0
2668987.0,-0.006,-0.007,-0.02,-18.99,164.3,0
2668992.0,0.009,0.002,0.009,11.22,-44.74,0
2668997.0,-0.063,-0.009,-0.027,-7.88,113.23,0
2669002.0,0.018,-0.014,-0.073,-10.81,-165.8,0
2669007.0,-0.025,0.017,-0.006,33.6,102.55,0
2669012.0,0.018,0.005,0.026,8.78,-35.62,0
2669017.0,-0.006,0.01,0.023,22.01,13.53,0
2669022.0,-0.008,0.002,-0.013,9.37,147.83,0
2669027.0,0.011,0.029,-0.025,46.78,-155.63,0
2669032.0,-0.01,0.019,0.002,61.35,80.83,0
2669037.0,0.021,-0.007,-0.017,-14.67,-130.11,0
2669042.0,-0.006,0.012,-0.015,36.84,159.68,0
2669047.0,0.018,0.041,0.009,63.45,-64.24,0
2669052.0,0.002,0.005,0.016,16.8,-5.68,0
2669057.0,-0.015,0.007,0.006,23.78,66.91,0
2669062.0,0.03,0.01,0.033,12.2,-42.76,0
2669067.0,-0.027,0.041,0.009,55.01,71.92,0
2669072.0,0.021,0.038,-0.015,56.25,-126.02,0
2669077.0,-0.008,-0.031,0.018,-57.09,23.41,0
2669082.0,-0.015,0.026,0.03,37.86,26.51,0
2669087.0,-0.013,0.022,0.004,58.22,72.32,0
2669092.0,-0.006,0.012,-0.013,41.0,156.24,0
2669097.0,0.021,-0.026,-0.01,-48.58,-116.39,0
2669102.0,-0.041,0.029,0.006,34.45,81.15,0
2669107.0,0.016,0.002,0.011,7.22,-54.82,0
2669112.0,-0.006,-0.014,-0.006,-61.23,134.59,0
2669117.0,-0.022,-0.007,-0.013,-15.45,119.59,0
2669122.0,-0.003,0.017,0.002,77.92,62.31,0
2669127.0,-0.02,0.031,-0.001,57.39,92.06,0
2669132.0,0.021,-0.002,0.011,-5.6,-61.53,0
2669137.0,0.011,-0.021,-0.01,-54.71,-132.66,0
2669142.0,0.002,-0.017,0.018,-42.03,-4.95,0
2669147.0,0.021,-0.002,0.023,-4.25,-41.78,0
2669152.0,-0.025,0.022,0.006,40.22,75.36,0
2669157.0,-0.006,-0.002,0.011,-10.44,26.4,0
2669162.0,0.004,0.007,-0.006,46.88,-144.08,0
2669167.0,0.004,0.012,0.006,57.77,-31.69,0
2669172.0,0.014,0.019,0.018,40.04,-36.35,0
2669177.0,-0.001,0.029,0.03,43.45,1.5,0
2669182.0,-0.018,0.002,0.014,6.35,52.14,0
2669187.0,-0.015,-0.002,0.004,-8.39,74.98,0
2669192.0,0.002,-0.024,0.002,-84.46,-43.61,0
2669197.0,-0.008,-0.009,0.011,-34.54,35.35,0
2669202.0,-0.018,-0.012,0.009,-31.16,63.23,0
2669207.0,-0.027,-0.007,0.002,-14.64,86.47,0
2669212.0,-0.015,0.024,0.016,47.42,43.39,0
2669217.0,-0.018,0.019,-0.039,24.2,155.78,0
2669222.0,-0.022,0.007,0.004,17.73,79.68,0
2669227.0,-0.001,0.01,-0.01,43.08,175.57,0
2669232.0,0.023,-0.007,-0.025,-11.86,-136.82,0
2669237.0,0.018,-0.007,0.016,-16.24,-48.85,0
2669242.0,-0.015,0.024,0.016,47.42,43.39,0
2669247.0,-0.027,0.012,0.006,23.37,76.6,0
2669252.0,0.011,0.005,-0.017,13.21,-147.41,0
2669257.0,0.016,-0.005,0.009,-14.46,-60.97,0
2669262.0,0.009,0.0,0.038,0.12,-13.15,0
2669267.0,-0.018,0.01,0.014,23.47,52.14,0
2669272.0,0.002,0.022,-0.027,38.59,-176.62,0
2669277.0,-0.008,0.024,0.026,41.84,17.3,0
2669282.0,-0.003,0.019,-0.046,22.55,176.05,0
2669287.0,0.023,-0.009,-0.017,-18.13,-127.06,0
2669292.0,0.004,0.007,0.014,27.06,-16.3,0
2669297.0,0.009,0.002,-0.029,4.6,-163.4,0
2669302.0,0.014,-0.009,-0.02,-21.54,-145.68,0
2669307.0,-0.013,-0.019,-0.003,-55.43,103.7,0
2669312.0,-0.003,-0.024,0.038,-32.32,4.85,0
2669317.0,0.021,0.01,0.011,22.25,-61.53,0
2669322.0,-0.02,0.019,0.021,33.7,43.77,0
2669327.0,0.014,0.0,0.033,0.13,-22.47,0
2669332.0,-0.003,0.017,0.002,77.92,62.31,0
2669337.0,-0.018,-0.029,0.004,-57.83,76.95,0
2669342.0,-0.013,-0.009,-0.008,-32.31,121.75,0
2669347.0,-0.03,-0.005,0.018,-7.7,58.02,0
2669352.0,0.009,0.007,0.026,15.01,-18.92,0
2669357.0,0.011,0.002,-0.01,9.25,-132.66,0
2669362.0,-0.001,0.002,-0.032,4.44,178.56,0
2669367.0,0.035,0.017,0.018,23.01,-62.3,0
2669372.0,0.026,0.01,0.009,19.66,-70.87,0
2669377.0,-0.001,0.007,-0.034,11.97,178.66,0
2669382.0,0.004,-0.026,0.011,-65.55,-19.53,0
2669387.0,-0.003,0.029,-0.001,83.52,102.69,0
2669392.0,-0.003,0.019,-0.025,37.72,172.62,0
2669397.0,0.016,-0.017,-0.044,-19.68,-159.98,0
2669402.0,0.002,-0.002,0.006,-19.17,-13.87,0
2669407.0,0.018,0.017,0.004,41.85,-77.5,0
2669412.0,-0.003,0.0,-0.025,0.18,172.62,0
2669417.0,-0.006,-0.002,-0.029,-4.41,169.26,0
2669422.0,0.035,-0.005,-0.001,-7.64,-91.17,0
2669427.0,0.004,-0.002,-0.027,-4.84,-171.61,0
2669432.0,-0.006,0.026,-0.008,69.88,144.74,0
2669437.0,0.009,0.007,0.014,24.11,-32.75,0
2669442.0,-0.013,0.01,-0.017,24.04,143.85,0
2669447.0,0.002,-0.021,-0.044,-26.09,-177.91,0
2669452.0,-0.008,-0.014,0.018,-35.42,23.41,0
2669457.0,-0.006,-0.019,0.018,-44.72,16.86,0
2669462.0,-0.03,-0.05,-0.006,-59.1,100.57,0
2669467.0,0.002,-0.009,0.03,-17.32,-3.0,0
2669472.0,-0.006,-0.017,-0.003,-69.02,119.13,0
2669477.0,0.011,0.017,-0.034,25.06,-161.93,0
2669482.0,0.021,-0.005,0.023,-8.6,-41.78,0
2669487.0,-0.015,-0.002,0.057,-2.26,14.96,0
2669492.0,-0.025,0.017,0.018,28.63,53.31,0
2669497.0,-0.01,0.0,0.004,0.41,68.58,0
2669502.0,-0.018,-0.012,-0.006,-32.87,107.42,0
2669507.0,0.04,0.019,0.026,22.08,-57.3,0
2669512.0,-0.02,0.022,-0.02,37.53,134.89,0
2669517.0,0.011,0.031,0.004,69.14,-69.99,0
2669522.0,0.009,0.0,-0.017,0.23,-153.33,0
2669527.0,-0.041,0.01,0.009,12.82,77.95,0
2669532.0,0.009,-0.021,0.03,-34.15,-16.1,0
2669537.0,-0.027,-0.002,0.014,-4.36,63.3,0
2669542.0,0.023,0.002,0.014,5.26,-59.48,0
2669547.0,-0.025,0.019,-0.032,25.5,142.16,0
2669552.0,0.014,-0.012,0.04,-15.73,-18.74,0
2669557.0,0.018,0.007,-0.008,19.97,-113.29,0
2669562.0,-0.051,0.024,-0.027,22.57,117.91,0
2669567.0,0.033,0.022,0.03,25.84,-47.1,0
2669572.0,0.004,0.014,0.026,29.12,-8.85,0
2669577.0,-0.003,0.017,-0.003,75.17,134.28,0
2669582.0,-0.006,0.017,-0.008,60.12,144.74,0
2669587.0,0.011,0.024,0.026,40.68,-23.56,0
2669592.0,0.03,-0.009,0.014,-15.94,-65.77,0
2669597.0,-0.008,-0.012,-0.013,-38.42,147.83,0
2669602.0,0.006,-0.007,0.047,-8.49,-7.71,0
2669607.0,-0.006,0.005,-0.015,16.84,159.68,0
2669612.0,-0.003,-0.007,-0.013,-28.49,165.88,0
2669617.0,-0.018,0.017,0.002,43.67,84.55,0
2669622.0,0.006,0.0,0.016,0.27,-21.7,0
2669627.0,0.016,0.036,0.054,32.43,-16.37,0
2669632.0,0.006,-0.005,-0.077,-3.47,-175.28,0
2669637.0,0.016,-0.007,0.014,-18.69,-49.47,0
2669642.0,0.014,0.024,0.035,32.49,-21.08,0
2669647.0,0.006,0.005,-0.008,25.61,-141.06,0
2669652.0,-0.008,0.002,0.033,4.19,13.68,0
2669657.0,0.006,0.005,0.018,14.01,-19.1,0
2669662.0,0.002,0.005,0.006,36.17,-13.87,0
2669667.0,-0.013,0.014,-0.017,33.72,143.85,0
2669672.0,0.002,-0.031,-0.001,-86.77,-114.25,0
2669677.0,0.021,-0.036,0.006,-58.76,-72.7,0
2669682.0,-0.018,-0.007,-0.01,-19.24,120.39,0
2669687.0,0.035,-0.002,-0.001,-3.77,-91.17,0
2669692.0,-0.03,0.029,0.016,40.61,61.49,0
2669697.0,0.026,0.005,0.016,9.17,-57.87,0
2669702.0,0.002,-0.014,-0.029,-25.84,-176.9,0
2669707.0,-0.015,0.01,0.002,32.33,83.69,0
2669712.0,0.018,-0.019,0.018,-36.25,-44.88,0
2669717.0,-0.041,0.007,0.016,9.27,68.87,0
2669722.0,-0.001,0.022,-0.001,87.16,132.02,0
2669727.0,0.011,0.019,0.006,56.13,-59.95,0
2669732.0,0.023,-0.019,0.002,-39.42,-85.86,0
2669737.0,-0.003,0.002,0.004,25.56,38.11,0
2669742.0,-0.018,0.019,0.016,38.96,47.58,0
2669747.0,0.011,0.014,0.057,14.02,-11.14,0
2669752.0,-0.008,0.026,-0.001,73.13,95.15,0
2669757.0,0.009,0.0,-0.039,0.11,-167.32,0
2669762.0,0.023,-0.005,-0.01,-10.53,-113.98,0
2669767.0,0.023,0.026,0.011,45.75,-64.07,0
2669772.0,-0.003,0.0,-0.003,1.03,134.28,0
2669777.0,-0.006,-0.021,0.021,-44.87,15.01,0
2669782.0,0.011,0.024,-0.015,51.99,-143.47,0
2669787.0,-0.022,-0.014,-0.041,-16.88,151.65,0
2669792.0,0.011,0.005,-0.022,11.06,-153.35,0
2669797.0,0.006,0.01,-0.001,56.36,-96.43,0
2669802.0,-0.018,0.029,-0.025,43.58,144.55,0
2669807.0,0.016,0.014,-0.041,18.03,-158.93,0
2669812.0,-0.015,0.014,0.014,35.3,48.01,0
2669817.0,-0.006,0.017,-0.039,23.13,171.85,0
2669822.0,0.023,-0.033,0.011,-52.42,-64.07,0
2669827.0,-0.018,0.024,0.028,36.0,32.08,0
2669832.0,0.016,-0.009,0.045,-11.3,-19.62,0
2669837.0,-0.01,0.0,0.018,0.22,29.37,0
2669842.0,0.045,0.0,0.002,0.1,-87.85,0
2669847.0,-0.027,-0.012,0.014,-21.38,63.3,0
2669852.0,0.018,0.014,0.014,32.27,-53.37,0
2669857.0,-0.013,-0.007,0.035,-10.74,19.94,0
2669862.0,0.011,-0.005,0.006,-20.04,-59.95,0
2669867.0,0.009,-0.012,0.026,-23.71,-18.92,0
2669872.0,-0.025,0.012,-0.039,14.62,147.63,0
2669877.0,0.011,0.005,-0.022,11.06,-153.35,0
2669882.0,-0.025,0.022,0.03,28.89,39.13,0
2669887.0,-0.034,0.014,0.011,21.8,71.85,0
2669892.0,-0.003,0.019,0.026,36.69,7.1,0
2669897.0,-0.02,-0.002,0.028,-3.85,35.46,0
2669902.0,0.011,-0.009,-0.034,-14.77,-161.93,0
2669907.0,-0.044,0.022,0.002,26.21,87.81,0
2669912.0,0.009,0.012,-0.003,52.3,-109.52,0
2669917.0,-0.02,0.022,-0.003,46.96,98.87,0
2669922.0,-0.015,-0.024,-0.032,-34.08,154.54,0
2669927.0,0.009,-0.014,-0.039,-19.65,-167.32,0
2669932.0,-0.025,0.017,0.004,33.89,80.66,0
2669937.0,0.011,0.0,-0.008,0.33,-125.27,0
2669942.0,-0.022,0.012,-0.041,14.36,151.65,0
2669947.0,0.035,0.01,-0.015,14.18,-113.25,0
2669952.0,0.016,-0.021,0.004,-52.5,-75.7,0
2669957.0,-0.013,0.002,-0.017,6.52,143.85,0
2669962.0,0.014,0.002,0.045,3.03,-16.86,0
2669967.0,-0.03,-0.007,-0.01,-12.8,109.22,0
2669972.0,0.004,-0.007,0.018,-20.63,-12.21,0
2669977.0,-0.003,0.005,-0.053,5.2,176.58,0
2669982.0,-0.015,0.002,0.023,5.1,33.14,0
2669987.0,0.009,-0.002,0.004,-13.45,-65.13,0
2669992.0,-0.003,-0.002,-0.001,-35.27,102.69,0
2669997.0,-0.018,-0.017,-0.017,-33.95,134.87,0
2670002.0,0.021,-0.005,-0.037,-6.38,-150.47,0
2670007.0,-0.01,0.029,0.028,43.96,20.32,0
2670012.0,0.009,-0.002,0.035,-3.65,-14.01,0
2670017.0,0.009,-0.017,0.009,-53.22,-44.74,0
2670022.0,-0.01,-0.002,0.006,-10.72,58.08,0
2670027.0,0.021,0.024,0.023,37.65,-41.78,0
2670032.0,-0.001,0.012,-0.017,34.56,177.39,0
2670037.0,0.016,-0.009,-0.01,-26.56,-122.82,0
2670042.0,0.026,0.036,0.038,38.38,-34.19,0
2670047.0,-0.006,-0.007,-0.001,-51.58,97.33,0
2670052.0,0.014,0.007,0.011,22.39,-50.33,0
2670057.0,-0.025,-0.002,0.002,-5.33,86.13,0
2670062.0,0.035,0.014,-0.063,11.33,-150.85,0
2670067.0,-0.049,0.005,-0.013,5.53,104.61,0
2670072.0,0.014,0.012,-0.046,14.05,-163.64,0
2670077.0,0.021,0.002,-0.02,4.92,-133.76,0
2670082.0,0.006,-0.017,-0.027,-30.96,-166.72,0
2670087.0,0.006,0.01,0.028,18.58,-12.84,0
2670092.0,-0.039,-0.017,0.023,-20.14,59.3,0
2670097.0,0.035,-0.007,-0.025,-9.4,-125.08,0
2670102.0,-0.03,-0.005,-0.041,-5.29,144.52,0
2670107.0,0.04,-0.031,0.006,-37.52,-80.8,0
2670112.0,0.026,0.017,0.04,19.54,-32.57,0
2670117.0,-0.001,0.024,0.047,26.99,0.97,0
2670122.0,0.009,0.002,0.064,2.2,-7.82,0
2670127.0,-0.013,0.026,0.002,64.01,82.52,0
2670132.0,-0.032,0.014,-0.001,24.34,91.29,0
2670137.0,-0.001,0.017,0.006,68.85,7.04,0
2670142.0,-0.015,-0.036,0.028,-48.37,28.43,0
2670147.0,-0.03,0.0,-0.029,0.11,134.92,0
2670152.0,0.014,-0.019,0.002,-54.37,-82.96,0
2670157.0,-0.003,-0.007,0.03,-13.08,5.99,0
2670162.0,-0.003,0.012,-0.029,22.14,173.81,0
2670167.0,-0.039,0.0,-0.013,0.11,107.98,0
2670172.0,0.004,0.014,0.054,14.85,-4.2,0
2670177.0,-0.008,-0.014,0.057,-14.0,8.01,0
2670182.0,0.023,-0.009,-0.008,-21.22,-108.85,0
2670187.0,-0.003,0.017,-0.034,26.09,174.67,0
2670192.0,-0.018,-0.005,-0.006,-14.35,107.42,0
2670197.0,-0.01,0.024,0.03,36.79,18.84,0
2670202.0,-0.001,0.017,0.023,35.93,1.97,0
2670207.0,-0.018,0.005,0.002,15.43,84.55,0
2670212.0,-0.006,-0.026,0.03,-40.34,10.41,0
2670217.0,-0.053,0.005,0.026,4.69,64.4,0
2670222.0,-0.044,0.038,-0.025,37.32,119.33,0
2670227.0,-0.001,0.007,0.009,39.24,5.15,0
2670232.0,0.016,-0.014,0.006,-39.68,-67.95,0
2670237.0,0.014,-0.012,0.009,-36.27,-56.86,0
2670242.0,-0.018,0.007,0.016,16.98,47.58,0
2670247.0,-0.008,0.005,-0.01,20.49,142.22,0
2670252.0,0.004,-0.005,-0.029,-9.0,-172.28,0
2670257.0,-0.03,-0.024,0.002,-38.9,86.75,0
2670262.0,0.035,0.012,-0.01,18.23,-106.34,0
2670267.0,-0.001,0.048,0.038,51.91,1.22,0
2670272.0,-0.006,0.026,0.023,47.88,13.53,0
2670277.0,-0.01,-0.005,-0.008,-19.85,127.29,0
2670282.0,0.004,0.012,0.035,18.79,-6.47,0
2670287.0,0.011,-0.002,-0.003,-11.28,-105.57,0
2670292.0,0.004,0.007,0.014,27.06,-16.3,0
2670297.0,0.016,-0.031,0.023,-47.77,-34.5,0
2670302.0,0.016,0.005,-0.01,14.38,-122.82,0
2670307.0,0.016,-0.019,-0.017,-38.86,-137.6,0
2670312.0,-0.001,0.002,0.006,20.8,7.04,0
2670317.0,-0.008,0.012,0.006,49.56,50.99,0
2670322.0,0.026,0.012,0.047,12.66,-28.43,0
2670327.0,-0.03,0.017,-0.015,26.92,117.06,0
2670332.0,-0.003,0.007,0.035,11.61,5.18,0
2670337.0,-0.022,0.022,0.033,28.59,34.27,0
2670342.0,-0.003,-0.019,-0.015,-51.05,168.05,0
2670347.0,0.026,-0.021,-0.003,-39.84,-96.95,0
2670352.0,-0.003,0.024,0.028,40.43,6.5,0
2670357.0,-0.001,0.014,-0.068,12.03,179.33,0
2670362.0,-0.015,-0.012,-0.001,-38.07,92.72,0
2670367.0,-0.022,0.019,-0.015,35.5,124.02,0
2670372.0,-0.025,0.014,0.011,27.99,65.54,0
2670377.0,0.033,0.017,-0.008,26.58,-103.58,0
2670382.0,-0.02,0.012,0.009,28.9,66.06,0
2670387.0,0.018,-0.021,0.028,-32.66,-33.24,0
2670392.0,0.006,0.0,-0.003,0.64,-115.99,0
2670397.0,0.006,0.01,0.023,21.85,-15.37,0
2670402.0,0.016,-0.009,0.002,-30.61,-84.01,0
2670407.0,-0.056,-0.012,-0.003,-12.0,93.19,0
2670412.0,0.014,0.002,-0.015,6.95,-138.03,0
2670417.0,-0.027,0.019,0.009,33.97,71.92,0
2670422.0,0.026,-0.005,0.023,-7.77,-47.72,0
2670427.0,0.006,0.022,-0.022,43.04,-164.0,0
2670432.0,-0.032,0.014,-0.058,12.28,151.25,0
2670437.0,-0.003,0.012,0.002,73.34,62.31,0
2670442.0,0.004,0.0,0.002,1.06,-67.22,0
2670447.0,0.009,0.0,0.04,0.11,-12.38,0
2670452.0,0.009,0.012,0.002,53.44,-79.19,0
2670457.0,-0.027,-0.002,0.011,-4.5,67.48,0
2670462.0,-0.006,-0.009,0.016,-29.21,19.2,0
2670467.0,0.011,-0.019,-0.015,-45.46,-143.47,0
2670472.0,0.014,0.014,0.021,30.16,-33.08,0
2670477.0,-0.013,0.031,0.045,33.83,15.92,0
2670482.0,0.026,0.005,0.026,7.67,-44.91,0
2670487.0,-0.006,0.034,0.033,45.28,9.67,0
2670492.0,0.014,0.029,-0.013,57.19,-133.09,0
2670497.0,0.002,0.014,-0.032,24.37,-177.13,0
2670502.0,-0.006,0.029,-0.008,71.43,144.74,0
2670507.0,0.006,0.014,-0.003,63.82,-115.99,0
2670512.0,-0.001,0.007,-0.013,29.73,176.4,0
2670517.0,-0.001,0.026,-0.001,87.67,132.02,0
2670522.0,-0.006,0.031,-0.049,32.53,173.44,0
2670527.0,-0.037,0.005,-0.025,6.28,123.89,0
2670532.0,-0.015,0.005,-0.017,11.88,139.06,0
2670537.0,0.002,-0.007,0.016,-23.78,-5.68,0
2670542.0,-0.013,0.014,-0.01,41.37,128.88,0
2670547.0,-0.006,-0.019,-0.046,-22.28,173.11,0
2670552.0,-0.022,0.014,-0.029,21.34,142.81,0
2670557.0,0.011,0.002,0.004,11.75,-69.99,0
2670562.0,0.03,-0.026,0.018,-36.49,-58.71,0
2670567.0,-0.001,0.026,-0.003,83.06,165.62,0
2670572.0,-0.006,0.014,-0.01,50.96,151.52,0
2670577.0,0.004,0.026,0.006,73.96,-31.69,0
2670582.0,-0.006,0.007,0.004,46.42,53.93,0
2670587.0,-0.018,0.01,0.009,26.15,63.23,0
2670592.0,0.023,0.019,0.016,34.33,-55.27,0
2670597.0,-0.006,0.01,-0.015,30.98,159.68,0
2670602.0,0.011,0.002,-0.051,2.71,-167.64,0
2670607.0,0.009,0.005,0.002,28.58,-79.19,0
2670612.0,0.026,-0.002,0.021,-4.02,-50.8,0
2670617.0,0.021,-0.012,0.035,-16.23,-30.52,0
2670622.0,0.016,-0.014,0.018,-30.36,-40.89,0
2670627.0,0.004,0.012,-0.001,71.4,-100.22,0
2670632.0,-0.013,0.031,0.004,66.76,72.32,0
2670637.0,-0.02,-0.019,0.042,-22.16,25.21,0
2670642.0,-0.015,-0.005,0.03,-7.89,26.51,0
2670647.0,-0.008,0.0,0.011,0.33,35.35,0
2670652.0,-0.013,-0.029,-0.02,-50.5,147.28,0
2670657.0,0.002,-0.007,-0.022,-17.65,-175.9,0
2670662.0,-0.013,-0.005,0.002,-20.08,82.52,0
2670667.0,0.002,-0.014,-0.02,-35.62,-175.41,0
2670672.0,-0.018,0.007,0.062,6.48,15.93,0
2670677.0,0.035,-0.002,0.016,-3.43,-65.45,0
2670682.0,0.035,0.014,-0.029,17.49,-129.99,0
2670687.0,-0.003,-0.024,-0.017,-53.33,169.65,0
2670692.0,-0.006,0.014,-0.008,56.18,144.74,0
2670697.0,-0.013,0.017,-0.008,48.28,121.75,0
2670702.0,0.023,0.01,0.042,11.31,-28.64,0
2670707.0,0.006,0.012,-0.017,32.93,-159.93,0
2670712.0,0.016,0.012,-0.001,37.03,-92.58,0
2670717.0,-0.003,-0.043,-0.049,-41.45,176.24,0
2670722.0,-0.01,0.024,-0.037,32.25,164.19,0
2670727.0,-0.015,0.005,0.023,9.96,33.14,0
2670732.0,-0.01,0.014,-0.003,53.14,106.7,0
2670737.0,-0.008,-0.019,-0.034,-28.48,166.88,0
2670742.0,-0.015,0.002,-0.001,9.26,92.72,0
2670747.0,0.004,0.0,-0.013,0.34,-162.54,0
2670752.0,-0.025,-0.002,0.021,-4.09,49.91,0
2670757.0,-0.034,-0.007,-0.003,-11.65,95.18,0
2670762.0,-0.001,0.002,0.002,53.12,25.47,0
2670767.0,-0.022,-0.024,-0.003,-46.6,97.93,0
2670772.0,0.018,0.019,-0.01,42.42,-119.29,0
2670777.0,-0.041,-0.002,0.006,-3.15,81.15,0
2670782.0,-0.01,-0.012,0.014,-34.75,37.25,0
2670787.0,-0.008,-0.002,-0.015,-7.72,152.12,0
2670792.0,-0.022,0.0,0.033,0.12,34.27,0
2670797.0,-0.001,-0.009,0.004,-66.41,11.1,0
2670802.0,-0.008,0.026,0.026,44.55,17.3,0
2670807.0,-0.022,0.019,-0.001,40.7,91.84,0
2670812.0,0.033,0.036,-0.006,47.33,-99.55,0
2670817.0,-0.037,0.024,0.038,24.57,44.32,0
2670822.0,-0.013,0.017,-0.01,45.75,128.88,0
2670827.0,0.011,-0.019,-0.017,-42.6,-147.41,0
2670832.0,-0.018,0.0,0.026,0.15,34.43,0
2670837.0,-0.001,-0.012,0.038,-17.55,1.22,0
2670842.0,0.011,-0.009,0.042,-12.23,-14.77,0
2670847.0,0.018,0.014,0.052,14.69,-19.46,0
2670852.0,-0.02,0.0,0.028,0.13,35.46,0
2670857.0,-0.008,0.005,-0.056,4.94,171.86,0
2670862.0,-0.003,-0.024,-0.032,-36.71,174.28,0
2670867.0,0.023,0.007,0.002,17.38,-85.86,0
2670872.0,-0.018,-0.019,0.03,-28.51,30.0,0
2670877.0,-0.008,0.007,-0.034,11.67,166.88,0
2670882.0,0.033,-0.014,0.014,-21.95,-67.36,0
2670887.0,0.018,0.014,-0.003,37.81,-99.62,0
2670892.0,-0.018,0.012,-0.008,32.04,114.23,0
2670897.0,-0.006,0.002,0.018,7.32,16.86,0
2670902.0,-0.01,-0.012,0.016,-31.9,32.89,0
2670907.0,0.004,-0.002,-0.001,-29.72,-100.22,0
2670912.0,0.004,-0.012,0.021,-29.28,-10.84,0
2670917.0,0.014,0.024,-0.01,54.66,-127.19,0
2670922.0,-0.01,0.002,0.028,4.73,20.32,0
2670927.0,-0.015,0.014,-0.032,22.27,154.54,0
2670932.0,0.038,0.024,-0.015,30.72,-111.91,0
2670937.0,0.021,0.012,0.078,8.46,-14.84,0
2670942.0,-0.003,-0.017,0.033,-26.85,5.56,0
2670947.0,0.016,-0.029,-0.025,-44.28,-147.09,0
2670952.0,0.018,0.024,-0.006,51.42,-106.7,0
2670957.0,0.004,-0.062,0.021,-71.16,-10.84,0
2670962.0,0.049,0.067,0.028,49.73,-60.49,0
2670967.0,-0.041,0.122,-0.14,40.0,163.44,0
2670972.0,0.081,-0.182,0.04,-63.68,-63.62,0
2670977.0,0.184,0.242,0.425,27.57,-23.34,0
2670982.0,-0.295,-0.158,-0.472,-15.83,147.99,0
2670987.0,0.2,0.254,0.2,41.86,-44.99,0
2670992.0,-0.01,-0.005,0.2,-1.34,2.96,0
2670997.0,0.014,-0.108,-0.111,-43.95,-173.02,0
2671002.0,-0.082,0.053,-0.099,22.31,140.26,0
2671007.0,-0.015,0.194,0.085,65.89,10.06,0
2671012.0,0.126,-0.153,-0.087,-45.0,-124.58,0
2671017.0,-0.525,0.283,-0.075,28.05,98.12,0
2671022.0,0.069,-0.338,-0.192,-58.83,-160.35,0
2671027.0,0.282,0.57,0.062,63.16,-77.68,0
2671032.0,-0.372,-0.644,-0.65,-40.71,150.21,0
2671037.0,0.528,0.699,0.923,33.31,-29.77,0
2671042.0,-0.159,0.117,1.314,5.07,6.89,0
2671047.0,0.054,0.086,-1.045,4.71,-177.03,0
2671052.0,-0.482,-0.438,-1.629,-14.46,163.51,0
2671057.0,0.15,0.101,0.677,8.26,-12.5,0
2671062.0,-0.274,-0.328,0.516,-29.29,27.93,0
2671067.0,0.342,0.347,-0.271,38.52,-128.46,0
2671072.0,-0.48,-0.469,-0.594,-31.56,141.1,0
2671077.0,0.258,0.486,0.346,48.38,-36.65,0
2671082.0,-0.171,-0.235,0.033,-53.45,79.13,0
2671087.0,0.018,0.5,-0.025,86.48,-143.34,0
2671092.0,-0.298,-0.122,-0.041,-22.1,97.92,0
2671097.0,0.217,0.206,-0.051,42.73,-103.22,0
2671102.0,-0.475,-0.484,-0.798,-27.51,149.24,0
2671107.0,0.289,0.237,0.083,38.26,-73.96,0
2671112.0,-0.36,-0.177,0.109,-25.21,73.09,0
2671117.0,0.298,0.335,-0.221,42.07,-126.52,0
2671122.0,-0.358,-0.349,-0.324,-35.92,132.18,0
2671127.0,0.193,0.436,0.311,50.0,-31.88,0
2671132.0,-0.209,-0.258,0.088,-48.74,67.21,0
2671137.0,0.298,0.405,0.143,50.73,-64.41,0
2671142.0,-0.444,-0.388,-0.372,-33.82,129.96,0
2671147.0,0.181,0.299,0.057,57.62,-72.61,0
2671152.0,-0.305,-0.352,-0.238,-42.31,127.95,0
2671157.0,0.263,0.156,0.045,30.31,-80.32,0
2671162.0,-0.358,-0.29,-0.164,-36.38,114.58,0
2671167.0,0.15,0.417,0.366,46.52,-22.31,0
2671172.0,-0.243,-0.366,-0.147,-52.25,121.17,0
2671177.0,0.243,0.28,-0.149,44.47,-121.5,0
2671182.0,-0.211,-0.328,-0.271,-43.63,142.06,0
2671187.0,0.325,0.228,0.203,30.72,-58.02,0
2671192.0,-0.094,-0.206,-0.195,-43.59,154.18,0
2671197.0,0.339,0.225,0.016,33.55,-87.29,0
2671202.0,-0.353,-0.258,-0.324,-28.36,132.56,0
2671207.0,0.112,0.34,0.107,65.54,-46.23,0
2671212.0,-0.391,-0.469,-0.087,-49.51,102.53,0
2671217.0,0.047,0.46,0.315,55.26,-8.49,0
2671222.0,-0.358,-0.306,-0.12,-39.08,108.62,0
2671227.0,0.15,0.398,0.081,66.8,-61.73,0
2671232.0,-0.135,-0.342,-0.132,-61.09,134.47,0
2671237.0,0.49,0.247,0.119,26.07,-76.35,0
2671242.0,-0.243,-0.153,-0.101,-30.22,112.66,0
2671247.0,0.174,0.321,0.172,52.71,-45.38,0
2671252.0,-0.259,-0.345,0.093,-51.37,70.34,0
2671257.0,0.186,0.278,0.157,48.76,-49.77,0
2671262.0,-0.36,-0.261,-0.152,-33.74,112.83,0
2671267.0,0.095,0.381,0.193,60.52,-26.18,0
2671272.0,-0.149,-0.378,-0.015,-68.37,95.77,0
2671277.0,0.337,0.299,0.141,39.36,-67.35,0
2671282.0,-0.247,-0.376,-0.032,-56.43,97.33,0
2671287.0,0.09,0.455,0.287,56.56,-17.47,0
2671292.0,-0.214,-0.268,-0.104,-48.44,115.86,0
2671297.0,0.128,0.275,0.095,59.87,-53.51,0
2671302.0,-0.348,-0.4,0.114,-47.51,71.83,0
2671307.0,0.059,0.354,0.267,52.31,-12.45,0
2671312.0,-0.384,-0.39,-0.159,-43.21,112.47,0
2671317.0,0.337,0.254,0.064,36.52,-79.25,0
2671322.0,-0.286,-0.409,0.062,-54.47,77.85,0
2671327.0,0.411,0.398,0.085,43.44,-78.25,0
2671332.0,-0.326,-0.256,-0.314,-29.47,133.92,0
2671337.0,0.418,0.263,0.181,30.03,-66.57,0
2671342.0,-0.346,-0.431,0.066,-50.76,79.14,0
2671347.0,0.514,0.412,0.095,38.24,-79.52,0
2671352.0,-0.377,-0.393,-0.216,-42.11,119.85,0
2671357.0,0.306,0.283,0.291,33.79,-46.37,0
2671362.0,-0.463,-0.328,0.15,-33.98,72.03,0
2671367.0,0.375,0.381,-0.015,45.41,-92.3,0
2671372.0,-0.492,-0.352,-0.527,-26.01,137.01,0
2671377.0,0.44,0.259,0.078,30.08,-79.9,0
2671382.0,-0.348,-0.498,0.157,-52.51,65.67,0
2671387.0,0.533,0.445,0.155,38.74,-73.8,0
2671392.0,-0.302,-0.373,-0.276,-42.36,132.39,0
2671397.0,0.253,0.254,0.059,44.34,-76.84,0
2671402.0,-0.401,-0.306,-0.013,-37.39,91.81,0
2671407.0,0.478,0.244,0.105,26.53,-77.65,0
2671412.0,-0.415,-0.28,-0.293,-28.87,125.21,0
2671417.0,0.411,0.33,0.22,35.35,-61.89,0
2671422.0,-0.37,-0.476,0.045,-52.0,83.09,0
2671427.0,0.354,0.424,0.205,46.04,-59.87,0
2671432.0,-0.374,-0.297,0.018,-38.38,87.18,0
2671437.0,0.241,0.338,0.21,46.57,-48.94,0
2671442.0,-0.422,-0.409,-0.343,-36.96,129.1,0
2671447.0,0.449,0.254,0.028,29.42,-86.43,0
2671452.0,-0.384,-0.263,-0.063,-34.09,99.32,0
2671457.0,0.449,0.314,0.093,34.37,-78.35,0
2671462.0,-0.288,-0.381,-0.415,-37.0,145.23,0
2671467.0,0.38,0.33,-0.029,40.94,-94.43,0
2671472.0,-0.353,-0.258,-0.149,-34.02,112.92,0
2671477.0,0.227,0.251,0.193,40.18,-49.55,0
2671482.0,-0.398,-0.34,0.033,-40.39,85.29,0
2671487.0,0.277,0.352,0.169,47.32,-58.57,0
2671492.0,-0.542,-0.297,-0.075,-28.48,97.87,0
2671497.0,0.313,0.369,0.081,48.78,-75.54,0
2671502.0,-0.403,-0.417,-0.31,-39.34,127.53,0
2671507.0,0.464,0.319,0.176,32.7,-69.17,0
2671512.0,-0.389,-0.335,-0.027,-40.7,93.98,0
2671517.0,0.282,0.235,0.042,39.48,-81.45,0
2671522.0,-0.434,-0.347,-0.415,-30.03,133.7,0
2671527.0,0.344,0.364,0.184,43.03,-61.9,0
2671532.0,-0.338,-0.175,0.109,-26.16,72.08,0
2671537.0,0.33,0.266,0.038,38.71,-83.49,0
2671542.0,-0.372,-0.395,-0.448,-34.14,140.33,0
2671547.0,0.397,0.242,0.107,30.49,-74.9,0
2671552.0,-0.314,-0.141,0.153,-22.0,64.13,0
2671557.0,0.181,0.278,0.069,55.11,-69.23,0
2671562.0,-0.532,-0.364,-0.355,-29.62,123.7,0
2671567.0,0.325,0.24,0.308,28.14,-46.51,0
2671572.0,-0.391,-0.225,-0.037,-29.8,95.35,0
2671577.0,0.184,0.292,-0.132,52.24,-125.8,0
2671582.0,-0.41,-0.299,-0.3,-30.49,126.18,0
2671587.0,0.456,0.342,0.26,33.09,-60.31,0
2671592.0,-0.288,-0.326,-0.262,-39.91,132.25,0
2671597.0,0.301,0.357,-0.171,45.89,-119.57,0
2671602.0,-0.207,-0.266,-0.118,-48.14,119.73,0
2671607.0,0.198,0.196,0.191,35.54,-46.05,0
2671612.0,-0.401,-0.225,-0.322,-23.65,128.75,0
2671617.0,0.085,0.187,0.023,64.65,-74.79,0
2671622.0,-0.446,-0.163,0.071,-19.81,80.94,0
2671627.0,0.356,0.16,0.15,22.56,-67.13,0
2671632.0,-0.508,-0.275,-0.379,-23.46,126.71,0
2671637.0,0.485,0.342,0.279,31.45,-60.07,0
2671642.0,-0.314,-0.158,0.076,-26.02,76.43,0
2671647.0,0.313,0.275,-0.099,40.01,-107.54,0
2671652.0,-0.372,-0.357,-0.484,-30.29,142.48,0
2671657.0,0.071,0.283,0.184,55.13,-21.15,0
2671662.0,-0.393,-0.314,-0.099,-37.7,104.11,0
2671667.0,0.219,0.4,0.109,58.48,-63.5,0
2671672.0,-0.307,-0.328,-0.197,-41.94,122.67,0
2671677.0,0.294,0.364,-0.01,51.08,-92.01,0
2671682.0,-0.307,-0.383,-0.389,-37.71,141.67,0
2671687.0,0.466,0.366,0.303,33.38,-56.94,0
2671692.0,-0.24,-0.256,0.069,-45.71,74.04,0
2671697.0,0.263,0.263,-0.252,35.89,-133.84,0
2671702.0,-0.444,-0.328,-0.403,-28.68,132.24,0
2671707.0,0.253,0.292,0.615,23.73,-22.37,0
2671712.0,-0.401,-0.189,0.16,-23.67,68.27,0
2671717.0,0.265,0.283,-0.29,35.71,-137.62,0
2671722.0,-0.326,-0.294,-0.458,-27.63,144.52,0
2671727.0,0.255,0.247,0.191,37.73,-53.23,0
2671732.0,-0.149,-0.247,-0.195,-45.15,142.52,0
2671737.0,0.255,0.362,-0.001,54.77,-90.16,0
2671742.0,-0.535,-0.28,-0.305,-24.47,119.68,0
2671747.0,0.069,0.275,0.083,68.63,-39.56,0
2671752.0,-0.437,-0.304,0.042,-34.73,84.46,0
2671757.0,0.105,0.149,0.275,26.81,-20.84,0
2671762.0,-0.429,-0.285,-0.295,-28.66,124.51,0
2671767.0,0.236,0.201,-0.216,32.14,-132.46,0
2671772.0,-0.132,-0.321,-0.365,-39.58,160.03,0
2671777.0,0.337,0.321,0.071,42.99,-78.08,0
2671782.0,-0.3,-0.168,-0.365,-19.53,140.55,0
2671787.0,0.33,0.208,-0.013,32.28,-92.2,0
2671792.0,-0.279,-0.304,-0.053,-46.99,100.85,0
2671797.0,0.109,0.242,0.097,58.81,-48.29,0
2671802.0,-0.525,-0.29,-0.29,-25.76,118.94,0
2671807.0,0.054,0.455,0.133,72.44,-22.14,0
2671812.0,-0.324,-0.519,0.05,-57.75,81.3,0
2671817.0,0.117,0.376,0.014,72.67,-83.32,0
2671822.0,-0.302,-0.239,-0.164,-34.84,118.4,0
2671827.0,0.298,0.395,0.176,48.73,-59.41,0
2671832.0,-0.085,-0.261,0.081,-65.86,46.36,0
2671837.0,0.282,0.002,-0.061,0.49,-102.13,0
2671842.0,-0.252,-0.256,-0.128,-42.18,116.84,0
2671847.0,0.133,0.34,0.265,48.9,-26.7,0
2671852.0,-0.346,-0.242,0.03,-34.87,84.97,0
2671857.0,0.234,0.141,0.162,26.42,-55.27,0
2671862.0,-0.444,-0.316,0.059,-35.21,82.41,0
2671867.0,0.265,0.398,0.09,54.85,-71.19,0
2671872.0,-0.154,-0.215,-0.223,-38.44,145.41,0
2671877.0,0.418,0.132,0.066,17.29,-80.99,0
2671882.0,-0.171,-0.333,0.035,-62.34,78.36,0
2671887.0,0.138,0.374,0.081,66.83,-59.7,0
2671892.0,-0.235,-0.302,-0.101,-49.64,113.28,0
2671897.0,0.059,0.218,0.188,47.82,-17.4,0
2671902.0,-0.329,-0.381,0.093,-48.09,74.26,0
2671907.0,0.385,0.402,0.145,44.37,-69.3,0
2671912.0,-0.386,-0.23,-0.233,-26.99,121.09,0
2671917.0,0.454,0.302,0.04,33.5,-84.97,0
2671922.0,-0.207,-0.407,0.03,-62.82,81.63,0
2671927.0,0.526,0.266,0.107,26.35,-78.5,0
2671932.0,-0.319,-0.256,-0.051,-38.39,99.08,0
2671937.0,0.33,0.364,0.131,45.74,-68.33,0
2671942.0,-0.393,-0.321,0.018,-39.16,87.32,0
2671947.0,0.404,0.33,0.229,35.44,-60.43,0
2671952.0,-0.3,-0.433,0.021,-55.23,86.03,0
2671957.0,0.473,0.378,0.203,36.31,-66.8,0
2671962.0,-0.279,-0.402,-0.204,-49.34,126.25,0
2671967.0,0.61,0.378,-0.017,31.81,-91.64,0
2671972.0,-0.29,-0.407,0.021,-54.41,85.9,0
2671977.0,0.385,0.426,0.409,37.22,-43.27,0
2671982.0,-0.408,-0.438,0.066,-46.67,80.76,0
2671987.0,0.346,0.359,0.026,45.97,-85.77,0
2671992.0,-0.492,-0.357,0.059,-35.76,83.14,0
2671997.0,0.442,0.304,0.366,27.93,-50.41,0
2672002.0,-0.336,-0.352,-0.068,-45.75,101.4,0
2672007.0,0.435,0.405,-0.096,42.25,-102.51,0
2672012.0,-0.247,-0.306,-0.324,-36.93,142.63,0
2672017.0,0.483,0.247,0.074,26.8,-81.34,0
2672022.0,-0.264,-0.527,-0.156,-59.76,120.62,0
2672027.0,0.528,0.5,0.085,43.08,-80.81,0
2672032.0,-0.377,-0.328,-0.017,-41.01,92.66,0
2672037.0,0.207,0.213,0.308,29.85,-33.96,0
2672042.0,-0.619,-0.395,-0.034,-32.52,93.17,0
2672047.0,0.222,0.443,0.097,61.32,-66.29,0
2672052.0,-0.492,-0.242,-0.113,-25.6,102.97,0
2672057.0,0.358,0.24,0.138,31.95,-68.92,0
2672062.0,-0.307,-0.512,-0.211,-53.94,124.53,0
2672067.0,0.689,0.409,0.179,29.92,-75.44,0
2672072.0,-0.228,-0.306,-0.259,-41.57,138.64,0
2672077.0,0.54,0.275,-0.161,26.03,-106.61,0
2672082.0,-0.465,-0.44,-0.24,-40.07,117.3,0
2672087.0,0.298,0.352,0.392,35.55,-37.29,0
2672092.0,-0.472,-0.182,0.188,-19.68,68.26,0
2672097.0,0.205,0.357,0.114,56.66,-60.89,0
2672102.0,-0.437,-0.548,-0.326,-45.17,126.78,0
2672107.0,0.536,0.323,0.167,29.96,-72.69,0
2672112.0,-0.298,-0.385,-0.108,-50.58,110.02,0
2672117.0,0.449,0.402,0.016,41.82,-87.96,0
2672122.0,-0.365,-0.424,-0.166,-46.6,114.46,0
2672127.0,0.495,0.309,0.22,29.71,-66.07,0
2672132.0,-0.429,-0.294,-0.283,-29.79,123.41,0
2672137.0,0.229,0.364,0.148,53.18,-57.18,0
2672142.0,-0.513,-0.395,0.052,-37.44,84.22,0
2672147.0,0.445,0.319,0.119,34.69,-75.01,0
2672152.0,-0.355,-0.328,-0.037,-42.57,95.89,0
2672157.0,0.279,0.321,0.203,42.91,-54.02,0
2672162.0,-0.441,-0.359,-0.278,-34.53,122.25,0
2672167.0,0.504,0.261,0.064,27.18,-82.78,0
2672172.0,-0.31,-0.206,0.164,-30.41,62.02,0
2672177.0,0.466,0.228,0.15,24.92,-72.15,0
2672182.0,-0.324,-0.357,-0.444,-32.99,143.86,0
2672187.0,0.37,0.369,0.071,44.36,-79.13,0
2672192.0,-0.329,-0.29,0.145,-38.86,66.16,0
2672197.0,0.279,0.29,0.191,40.58,-55.66,0
2672202.0,-0.441,-0.385,-0.422,-32.25,133.72,0
2672207.0,0.27,0.395,-0.037,55.43,-97.73,0
2672212.0,-0.401,-0.227,0.138,-28.21,70.97,0
2672217.0,0.306,0.311,0.258,37.9,-49.85,0
2672222.0,-0.551,-0.409,-0.393,-31.14,125.5,0
2672227.0,0.409,0.304,-0.044,36.5,-96.12,0
2672232.0,-0.35,-0.297,-0.147,-38.0,112.73,0
2672237.0,0.346,0.311,0.222,37.12,-57.35,0
2672242.0,-0.405,-0.249,-0.197,-28.91,115.92,0
2672247.0,0.346,0.199,-0.07,29.36,-101.45,0
2672252.0,-0.355,-0.244,-0.264,-28.88,126.63,0
2672257.0,0.272,0.34,0.16,47.14,-59.6,0
2672262.0,-0.468,-0.34,-0.085,-35.57,100.24,0
2672267.0,0.31,0.268,0.136,38.37,-66.38,0
2672272.0,-0.42,-0.213,-0.214,-24.33,116.99,0
2672277.0,0.301,0.266,0.153,38.24,-63.12,0
2672282.0,-0.322,-0.385,-0.08,-49.31,103.92,0
2672287.0,0.435,0.383,0.126,40.23,-73.82,0
2672292.0,-0.281,-0.268,-0.29,-33.56,135.95,0
2672297.0,0.404,0.342,0.045,40.13,-83.67,0
2672302.0,-0.29,-0.46,-0.034,-57.53,96.72,0
2672307.0,0.404,0.328,0.325,32.33,-51.18,0
2672312.0,-0.293,-0.172,-0.061,-29.95,101.68,0
2672317.0,0.205,0.29,-0.092,52.21,-114.09,0
2672322.0,-0.496,-0.46,-0.307,-38.21,121.75,0
2672327.0,0.246,0.251,0.1,43.47,-67.89,0
2672332.0,-0.508,-0.091,-0.094,-9.97,100.49,0
2672337.0,0.296,0.338,0.32,37.75,-42.77,0
2672342.0,-0.386,-0.278,-0.266,-30.61,124.6,0
2672347.0,0.344,0.024,-0.377,2.7,-137.59,0
2672352.0,-0.065,-0.168,-0.264,-31.62,166.08,0
2672357.0,0.382,0.081,0.232,10.33,-58.8,0
2672362.0,-0.305,-0.263,-0.14,-38.14,114.6,0
2672367.0,0.267,0.208,-0.065,37.13,-103.74,0
2672372.0,-0.437,-0.302,-0.243,-31.13,119.06,0
2672377.0,0.167,0.342,0.229,50.39,-36.05,0
2672382.0,-0.408,-0.189,0.052,-24.7,82.74,0
2672387.0,0.15,0.242,0.157,48.06,-43.65,0
2672392.0,-0.329,-0.381,-0.341,-38.79,136.02,0
2672397.0,0.334,0.05,0.09,8.27,-74.89,0
2672402.0,-0.37,-0.199,-0.152,-26.44,112.3,0
2672407.0,0.445,0.314,0.114,34.35,-75.59,0
2672412.0,-0.271,-0.424,-0.343,-44.09,141.66,0
2672417.0,0.251,0.316,0.234,42.68,-46.97,0
2672422.0,-0.19,-0.203,-0.025,-46.72,97.4,0
2672427.0,0.186,0.273,-0.132,50.1,-125.45,0
2672432.0,-0.312,-0.287,0.097,-41.3,72.66,0
2672437.0,0.468,0.031,0.294,3.23,-57.91,0
2672442.0,-0.398,-0.172,-0.144,-22.13,109.93,0
2672447.0,0.155,0.295,0.09,58.68,-59.76,0
2672452.0,-0.353,-0.266,0.363,-27.69,44.16,0
2672457.0,0.162,0.184,0.203,35.4,-38.62,0
2672462.0,-0.403,-0.17,-0.355,-17.55,131.38,0
2672467.0,0.128,0.204,0.126,48.51,-45.52,0
2672472.0,-0.14,-0.23,0.26,-37.88,28.22,0
2672477.0,0.325,0.031,-0.058,5.4,-100.16,0
2672482.0,-0.377,-0.194,-0.14,-25.76,110.33,0
2672487.0,0.124,0.311,0.339,40.77,-20.03,0
2672492.0,-0.283,-0.177,0.117,-30.03,67.63,0
2672497.0,0.21,0.058,-0.089,14.16,-113.05,0
2672502.0,-0.393,-0.256,-0.175,-30.73,114.04,0
2672507.0,0.368,0.254,0.284,28.64,-52.32,0
2672512.0,-0.338,-0.156,-0.022,-24.64,93.76,0
2672517.0,0.411,0.098,-0.075,13.23,-100.33,0
2672522.0,-0.188,-0.261,0.04,-53.68,77.97,0
2672527.0,0.411,0.307,0.16,34.81,-68.77,0
2672532.0,-0.247,-0.203,-0.281,-28.53,138.62,0
2672537.0,0.423,0.163,0.114,20.39,-74.89,0
2672542.0,-0.336,-0.395,0.241,-43.68,54.34,0
2672547.0,0.349,0.283,0.15,36.66,-66.71,0
2672552.0,-0.405,-0.326,-0.029,-38.69,94.15,0
2672557.0,0.176,0.383,0.33,45.7,-28.15,0
2672562.0,-0.226,-0.294,0.227,-42.61,44.89,0
2672567.0,0.421,0.309,-0.017,36.28,-92.38,0
2672572.0,-0.293,-0.302,-0.307,-35.4,136.36,0
2672577.0,0.502,0.189,0.184,19.49,-69.91,0
2672582.0,-0.252,-0.397,0.052,-57.06,78.36,0
2672587.0,0.502,0.321,-0.001,32.59,-90.08,0
2672592.0,-0.379,-0.263,-0.207,-31.38,118.59,0
2672597.0,0.277,0.321,0.157,45.22,-60.4,0
2672602.0,-0.465,-0.273,-0.104,-29.79,102.56,0
2672607.0,0.303,0.151,0.102,25.25,-71.37,0
2672612.0,-0.456,-0.335,-0.022,-36.3,92.8,0
2672617.0,0.31,0.295,0.181,39.33,-59.72,0
2672622.0,-0.305,-0.366,0.006,-50.22,88.79,0
2672627.0,0.564,0.453,0.255,36.16,-65.64,0
2672632.0,-0.329,-0.462,-0.053,-54.21,99.22,0
2672637.0,0.423,0.369,0.062,40.79,-81.72,0
2672642.0,-0.293,-0.395,-0.111,-51.59,110.73,0
2672647.0,0.318,0.369,0.016,49.23,-87.11,0
2672652.0,-0.3,-0.22,-0.032,-36.12,96.06,0
2672657.0,0.382,0.194,0.303,21.68,-51.57,0
2672662.0,-0.221,-0.421,-0.106,-59.8,115.63,0
2672667.0,0.655,0.34,0.157,26.78,-76.5,0
2672672.0,-0.472,-0.237,0.411,-20.72,48.97,0
2672677.0,0.401,0.278,0.366,27.1,-47.67,0
2672682.0,-0.463,-0.424,-0.53,-31.06,138.86,0
2672687.0,0.315,0.242,-0.199,32.96,-122.32,0
2672692.0,-0.312,-0.086,0.234,-12.45,53.14,0
2672697.0,0.44,0.24,0.416,21.59,-46.6,0
2672702.0,-0.37,-0.469,-0.42,-40.0,138.64,0
2672707.0,0.545,0.292,0.097,27.82,-79.86,0
2672712.0,-0.348,-0.22,0.246,-27.33,54.75,0
2672717.0,0.471,0.297,0.157,30.89,-71.53,0
2672722.0,-0.449,-0.519,-0.429,-39.92,133.74,0
2672727.0,0.342,0.386,0.129,46.57,-69.37,0
2672732.0,-0.24,-0.191,0.062,-37.67,75.63,0
2672737.0,0.265,0.254,-0.053,43.21,-101.39,0
2672742.0,-0.451,-0.45,-0.178,-42.87,111.53,0
2672747.0,0.452,0.342,0.402,29.54,-48.37,0
2672752.0,-0.3,-0.268,-0.104,-40.18,109.06,0
2672757.0,0.409,0.302,-0.231,32.75,-119.43,0
2672762.0,-0.374,-0.431,-0.056,-48.71,98.48,0
2672767.0,0.456,0.328,0.471,26.58,-44.11,0
2672772.0,-0.365,-0.196,-0.147,-26.53,111.92,0
2672777.0,0.298,0.333,-0.063,47.5,-101.91,0
2672782.0,-0.523,-0.366,-0.068,-34.79,97.39,0
2672787.0,0.418,0.386,0.301,36.81,-54.26,0
2672792.0,-0.36,-0.405,-0.161,-45.73,114.12,0
2672797.0,0.231,0.443,0.028,62.24,-83.1,0
2672802.0,-0.396,-0.464,-0.022,-49.51,93.22,0
2672807.0,0.382,0.304,0.16,36.28,-67.33,0
2672812.0,-0.25,-0.299,-0.166,-44.93,123.59,0
2672817.0,0.466,0.333,0.069,35.24,-81.61,0
2672822.0,-0.437,-0.361,-0.255,-35.58,120.24,0
2672827.0,0.435,0.218,0.114,25.86,-75.29,0
2672832.0,-0.508,-0.263,-0.065,-27.19,97.33,0
2672837.0,0.332,0.287,0.186,37.06,-60.74,0
2672842.0,-0.465,-0.321,-0.068,-34.3,98.29,0
2672847.0,0.318,0.271,0.145,37.77,-65.41,0
2672852.0,-0.389,-0.206,-0.068,-27.55,99.89,0
2672857.0,0.366,0.307,0.102,38.93,-74.37,0
2672862.0,-0.377,-0.326,-0.338,-32.74,131.93,0
2672867.0,0.428,0.362,-0.029,40.14,-93.94,0
2672872.0,-0.276,-0.258,-0.02,-43.04,94.12,0
2672877.0,0.351,0.319,0.126,40.48,-70.24,0
2672882.0,-0.432,-0.376,-0.288,-35.91,123.71,0
2672887.0,0.275,0.24,0.009,41.09,-88.15,0
2672892.0,-0.439,-0.304,0.002,-34.7,89.78,0
2672897.0,0.267,0.371,0.296,42.93,-42.07,0
2672902.0,-0.482,-0.326,-0.058,-33.84,96.88,0
2672907.0,0.351,0.354,0.112,43.88,-72.34,0
2672912.0,-0.31,-0.273,-0.128,-39.17,112.4,0
2672917.0,0.377,0.297,-0.118,36.9,-107.36,0
2672922.0,-0.3,-0.333,-0.178,-43.64,120.66,0
2672927.0,0.445,0.199,0.162,22.79,-69.97,0
2672932.0,-0.286,-0.208,-0.161,-32.41,119.42,0
2672937.0,0.267,0.22,0.085,38.13,-72.27,0
2672942.0,-0.441,-0.225,-0.061,-26.8,97.82,0
2672947.0,0.306,0.395,0.349,40.43,-41.23,0
2672952.0,-0.324,-0.287,-0.247,-35.17,127.35,0
2672957.0,0.416,-0.206,-0.051,-26.17,-96.99,0
2672962.0,-0.286,-0.4,-0.192,-49.26,123.94,0
2672967.0,0.31,0.302,0.09,43.03,-73.79,0
2672972.0,-0.3,-0.244,-0.221,-33.23,126.37,0
2672977.0,0.16,0.326,0.133,57.44,-50.12,0
2672982.0,-0.609,-0.273,-0.207,-22.99,108.74,0
2672987.0,0.2,0.24,0.102,46.8,-62.96,0
2672992.0,-0.36,-0.254,0.09,-34.36,75.92,0
2672997.0,0.193,-0.196,-0.104,-41.84,-118.23,0
2673002.0,-0.42,-0.287,-0.52,-23.25,141.1,0
2673007.0,0.406,0.314,-0.075,37.22,-100.45,0
2673012.0,-0.156,-0.194,0.198,-37.53,38.31,0
2673017.0,0.389,0.254,-0.049,32.9,-97.11,0
2673022.0,-0.367,-0.282,-0.192,-34.28,117.64,0
2673027.0,0.193,0.275,0.045,54.25,-76.95,0
2673032.0,-0.36,-0.263,0.229,-31.68,57.52,0
2673037.0,0.047,-0.139,0.023,-69.28,-63.75,0
2673042.0,-0.47,-0.258,-0.063,-28.59,97.63,0
2673047.0,0.236,0.259,0.121,44.24,-62.8,0
2673052.0,-0.247,-0.031,0.105,-6.59,67.08,0
2673057.0,0.318,-0.019,-0.063,-3.37,-101.21,0
2673062.0,-0.389,-0.148,-0.025,-20.85,93.63,0
2673067.0,0.351,0.139,0.203,18.91,-59.99,0
2673072.0,-0.288,-0.084,-0.156,-14.33,118.49,0
2673077.0,0.215,-0.06,-0.061,-15.0,-105.76,0
2673082.0,-0.329,-0.005,0.2,-0.7,58.64,0
2673087.0,0.234,0.055,0.081,12.57,-70.96,0
2673092.0,-0.336,-0.017,-0.276,-2.2,129.41,0
2673097.0,0.243,-0.108,0.164,-20.13,-55.95,0
2673102.0,-0.19,0.005,0.287,0.81,33.54,0
2673107.0,0.275,0.134,0.153,23.13,-60.95,0
2673112.0,-0.267,-0.084,-0.058,-17.06,102.31,0
2673117.0,0.253,-0.038,0.176,-7.06,-55.11,0
2673122.0,-0.329,-0.11,-0.068,-18.15,101.64,0
2673127.0,0.466,0.108,-0.063,12.91,-97.69,0
2673132.0,-0.116,-0.043,0.15,-12.79,37.63,0
2673137.0,0.392,0.244,0.186,29.39,-64.6,0
2673142.0,-0.039,-0.256,-0.3,-40.25,172.57,0
2673147.0,0.5,0.043,0.011,4.94,-88.71,0
2673152.0,-0.221,-0.096,0.26,-15.65,40.35,0
2673157.0,0.023,0.182,0.097,61.18,-13.36,0
2673162.0,-0.109,-0.239,-0.211,-45.2,152.82,0
2673167.0,0.248,0.105,0.406,12.49,-31.42,0
2673172.0,-0.286,-0.29,0.409,-30.15,34.96,0
2673177.0,0.351,0.271,0.085,36.83,-76.32,0
2673182.0,-0.211,-0.215,-0.108,-42.18,117.15,0
2673187.0,0.49,0.16,0.198,16.89,-68.0,0
2673192.0,-0.147,-0.275,-0.065,-59.72,113.99,0
2673197.0,0.356,0.189,-0.085,27.35,-103.36,0
2673202.0,-0.247,-0.06,0.05,-13.33,78.67,0
2673207.0,0.394,0.23,0.378,22.84,-46.24,0
2673212.0,-0.444,-0.34,0.038,-37.35,85.16,0
2673217.0,0.272,0.137,-0.106,25.06,-111.29,0
2673222.0,-0.2,-0.203,-0.106,-42.0,118.0,0
2673227.0,0.243,0.366,0.059,55.64,-76.34,0
2673232.0,-0.243,-0.304,-0.049,-50.86,101.33,0
2673237.0,0.284,0.16,0.212,24.34,-53.22,0
2673242.0,-0.121,-0.168,0.021,-53.87,80.19,0
2673247.0,0.6,0.333,0.002,29.02,-89.84,0
2673252.0,-0.35,-0.373,-0.166,-43.93,115.34,0
2673257.0,0.404,0.204,0.224,23.78,-60.95,0
2673262.0,-0.386,-0.347,0.172,-39.39,66.04,0
2673267.0,0.287,0.448,0.282,48.09,-45.47,0
2673272.0,-0.41,-0.251,-0.132,-30.24,107.89,0
2673277.0,0.373,0.137,0.117,19.27,-72.63,0
2673282.0,-0.219,-0.302,0.255,-41.89,40.56,0
2673287.0,0.49,0.395,0.208,36.59,-67.04,0
2673292.0,-0.255,-0.345,-0.357,-38.15,144.54,0
2673297.0,0.464,0.273,-0.104,29.88,-102.6,0
2673302.0,-0.19,-0.409,-0.013,-65.06,93.82,0
2673307.0,0.488,0.366,0.308,32.42,-57.71,0
2673312.0,-0.41,-0.242,0.009,-30.5,88.76,0
2673317.0,0.301,0.192,0.076,31.7,-75.84,0
2673322.0,-0.48,-0.462,0.09,-43.43,79.34,0
2673327.0,0.385,0.433,0.512,34.1,-36.94,0
2673332.0,-0.372,-0.28,0.112,-35.8,73.27,0
2673337.0,0.459,0.376,-0.077,38.94,-99.57,0
2673342.0,-0.252,-0.469,-0.19,-56.07,126.97,0
2673347.0,0.574,0.328,0.253,27.62,-66.2,0
2673352.0,-0.322,-0.263,-0.02,-39.25,93.54,0
2673357.0,0.445,0.352,0.085,37.87,-79.12,0
2673362.0,-0.422,-0.364,-0.192,-38.11,114.48,0
2673367.0,0.363,0.244,0.138,32.16,-69.17,0
2673372.0,-0.41,-0.273,-0.068,-33.28,99.38,0
2673377.0,0.351,0.381,0.179,44.02,-63.01,0
2673382.0,-0.35,-0.409,-0.07,-48.88,101.32,0
2673387.0,0.49,0.374,0.148,36.13,-73.22,0
2673392.0,-0.334,-0.443,-0.032,-52.88,95.45,0
2673397.0,0.454,0.364,0.107,37.96,-76.74,0
2673402.0,-0.463,-0.44,-0.02,-43.55,92.46,0
2673407.0,0.571,0.556,0.378,39.05,-56.55,0
2673412.0,-0.346,-0.517,0.066,-55.76,79.14,0
2673417.0,0.342,0.371,0.03,47.27,-84.91,0
2673422.0,-0.353,-0.457,-0.19,-48.78,118.29,0
2673427.0,0.581,0.421,0.334,32.16,-60.07,0
2673432.0,-0.307,-0.333,0.066,-46.63,77.82,0
2673437.0,0.428,0.199,-0.049,24.79,-96.48,0
2673442.0,-0.343,-0.373,-0.235,-41.9,124.44,0
2673447.0,0.397,0.429,0.181,44.51,-65.44,0
2673452.0,-0.336,-0.311,-0.051,-42.48,98.63,0
2673457.0,0.277,0.266,0.191,38.33,-55.43,0
2673462.0,-0.413,-0.443,0.018,-47.0,87.44,0
2673467.0,0.318,0.359,0.09,47.41,-74.14,0
2673472.0,-0.405,-0.223,-0.104,-28.01,104.34,0
2673477.0,0.401,0.362,0.485,29.86,-39.6,0
2673482.0,-0.41,-0.39,0.059,-43.27,81.8,0
2673487.0,0.531,0.247,-0.199,23.51,-110.6,0
2673492.0,-0.238,-0.311,-0.298,-39.24,141.37,0
2673497.0,0.449,0.376,0.33,34.01,-53.73,0
2673502.0,-0.255,-0.349,0.006,-53.92,88.55,0
2673507.0,0.483,0.369,-0.053,37.2,-96.31,0
2673512.0,-0.441,-0.326,-0.257,-32.52,120.2,0
2673517.0,0.229,0.35,0.265,44.95,-40.83,0
2673522.0,-0.525,-0.383,0.035,-36.04,86.17,0
2673527.0,0.296,0.247,0.109,38.01,-69.72,0
2673532.0,-0.453,-0.273,-0.233,-28.16,117.2,0
2673537.0,0.315,0.285,0.03,41.98,-84.49,0
2673542.0,-0.393,-0.263,0.016,-33.77,87.67,0
2673547.0,0.399,0.34,0.131,39.0,-71.83,0
2673552.0,-0.286,-0.354,-0.307,-40.18,137.07,0
2673557.0,0.421,-0.22,-0.118,-26.75,-105.68,0
2673562.0,-0.245,-0.294,-0.013,-50.19,92.96,0
2673567.0,0.445,0.314,0.299,30.36,-56.11,0
2673572.0,-0.338,-0.275,-0.049,-38.84,98.17,0
2673577.0,0.339,0.326,0.109,42.42,-72.12,0
2673582.0,-0.398,-0.393,-0.118,-43.38,106.51,0
2673587.0,0.339,0.352,0.09,45.09,-75.1,0
2673592.0,-0.35,-0.256,-0.171,-33.31,115.98,0
2673597.0,0.09,-0.309,0.035,-72.59,-68.68,0
2673602.0,-0.365,-0.326,-0.173,-38.88,115.39,0
2673607.0,0.275,0.225,-0.125,36.73,-114.52,0
2673612.0,-0.286,-0.182,0.263,-25.11,47.41,0
2673617.0,0.33,0.304,0.059,42.25,-79.83,0
2673622.0,-0.506,-0.388,-0.108,-36.85,102.1,0
2673627.0,0.282,0.256,-0.128,39.64,-114.37,0
2673632.0,-0.396,-0.184,0.291,-20.55,53.64,0
2673637.0,0.128,-0.268,0.179,-50.6,-35.69,0
2673642.0,-0.391,-0.316,-0.068,-38.52,99.83,0
2673647.0,0.325,0.127,-0.161,19.3,-116.38,0
2673652.0,-0.343,0.043,-0.02,7.16,93.31,0
2673657.0,0.322,-0.132,0.062,-21.85,-79.2,0
2673662.0,-0.331,0.165,-0.032,26.42,95.49,0
2673667.0,0.409,-0.122,0.018,-16.61,-87.42,0
2673672.0,-0.355,0.228,0.023,32.59,86.26,0
2673677.0,0.124,-0.34,-0.211,-54.22,-149.67,0
2673682.0,-0.47,0.187,0.042,21.6,84.85,0
2673687.0,0.236,-0.021,0.416,-2.57,-29.6,0
2673692.0,-0.295,0.137,0.145,22.53,63.8,0
2673697.0,0.217,-0.191,-0.283,-28.21,-142.53,0
2673702.0,-0.243,-0.041,-0.202,-7.33,129.76,0
2673707.0,0.287,0.163,0.308,21.16,-42.92,0
2673712.0,-0.116,0.012,0.32,2.03,19.88,0
2673717.0,0.162,-0.077,-0.156,-18.77,-133.98,0
2673722.0,-0.209,-0.009,-0.322,-1.42,146.96,0
2673727.0,0.306,0.05,0.148,8.44,-64.21,0
2673732.0,-0.178,-0.026,0.121,-6.95,55.7,0
2673737.0,0.203,-0.105,-0.037,-27.07,-100.24,0
2673742.0,-0.164,0.038,0.121,10.67,53.43,0
2673747.0,0.155,0.093,0.155,23.11,-44.99,0
2673752.0,-0.137,-0.048,-0.216,-10.57,147.59,0
2673757.0,0.248,-0.144,0.045,-29.65,-79.77,0
2673762.0,-0.147,0.043,0.248,8.51,30.6,0
2673767.0,0.289,0.06,-0.046,11.58,-99.09,0
2673772.0,-0.176,-0.048,-0.31,-7.65,150.44,0
2673777.0,0.21,0.017,0.1,4.14,-64.56,0
2673782.0,-0.113,-0.031,0.358,-4.72,17.55,0
2673787.0,0.255,0.16,0.21,25.89,-50.57,0
2673792.0,-0.281,-0.11,-0.099,-20.28,109.39,0
2673797.0,0.263,0.007,0.011,1.58,-87.55,0
2673802.0,-0.233,-0.093,0.006,-21.81,88.41,0
2673807.0,0.31,0.149,0.064,25.11,-78.36,0
2673812.0,-0.247,-0.12,0.074,-24.87,73.45,0
2673817.0,0.306,0.156,0.232,22.1,-52.86,0
2673822.0,-0.161,-0.218,-0.039,-52.71,103.61,0
2673827.0,0.375,0.175,-0.166,23.09,-113.86,0
2673832.0,-0.302,-0.122,-0.085,-21.23,105.61,0
2673837.0,0.334,0.081,0.263,10.85,-51.85,0
2673842.0,-0.247,-0.148,0.064,-30.14,75.51,0
2673847.0,0.179,0.093,-0.058,26.43,-108.03,0
2673852.0,-0.228,-0.05,0.011,-12.39,87.18,0
2673857.0,0.258,0.041,0.306,5.82,-40.14,0
2673862.0,-0.255,-0.172,0.09,-32.53,70.48,0
2673867.0,0.421,0.204,0.109,25.1,-75.42,0
2673872.0,-0.326,-0.232,-0.029,-35.31,95.16,0
2673877.0,0.497,0.098,0.229,10.17,-65.26,0
2673882.0,-0.154,-0.242,0.03,-57.0,78.83,0
2673887.0,0.433,0.256,0.006,30.64,-89.14,0
2673892.0,-0.221,-0.215,-0.125,-40.29,119.53,0
2673897.0,0.392,0.177,0.224,21.43,-60.21,0
2673902.0,-0.269,-0.266,0.081,-43.42,73.3,0
2673907.0,0.186,0.23,0.023,50.82,-82.88,0
2673912.0,-0.35,-0.27,0.064,-37.21,79.66,0
2673917.0,0.258,0.266,0.39,29.64,-33.49,0
2673922.0,-0.29,-0.304,0.105,-44.55,70.19,0
2673927.0,0.471,0.309,0.095,32.75,-78.59,0
2673932.0,-0.13,-0.302,0.033,-66.02,75.85,0
2673937.0,0.576,0.256,0.196,22.84,-71.25,0
2673942.0,-0.188,-0.357,-0.132,-57.23,125.22,0
2673947.0,0.349,0.304,-0.017,41.06,-92.87,0
2673952.0,-0.398,-0.349,-0.063,-40.92,98.99,0
2673957.0,0.267,0.374,0.232,46.57,-49.11,0
2673962.0,-0.496,-0.292,-0.152,-29.36,106.98,0
2673967.0,0.253,0.285,0.057,47.71,-77.36,0
2673972.0,-0.463,-0.29,0.107,-31.37,76.98,0
2673977.0,0.413,0.247,0.289,26.06,-55.05,0
2673982.0,-0.393,-0.263,-0.156,-31.88,111.67,0
2673987.0,0.564,0.292,-0.111,26.94,-101.12,0
2673992.0,-0.202,-0.278,0.002,-53.97,89.52,0
2673997.0,0.507,0.199,0.332,18.17,-56.76,0
2674002.0,-0.396,-0.338,-0.187,-37.62,115.34,0
2674007.0,0.413,0.328,-0.111,37.47,-105.01,0
2674012.0,-0.346,-0.388,0.057,-47.92,80.68,0
2674017.0,0.344,0.39,0.392,36.82,-41.27,0
2674022.0,-0.444,-0.474,0.002,-46.89,89.78,0
2674027.0,0.411,0.386,0.148,41.44,-70.23,0
2674032.0,-0.449,-0.275,0.121,-30.64,74.86,0
2674037.0,0.368,0.287,0.241,33.16,-56.76,0
2674042.0,-0.305,-0.371,-0.104,-49.05,108.78,0
2674047.0,0.607,0.414,0.045,34.23,-85.78,0
2674052.0,-0.156,-0.371,-0.106,-63.01,124.14,0
2674057.0,0.538,0.333,0.093,31.38,-80.23,0
2674062.0,-0.3,-0.44,-0.223,-49.66,126.66,0
2674067.0,0.337,0.424,0.143,49.2,-67.0,0
2674072.0,-0.434,-0.299,0.131,-33.42,73.21,0
2674077.0,0.258,0.326,0.325,38.14,-38.43,0
2674082.0,-0.499,-0.479,-0.046,-43.7,95.29,0
2674087.0,0.385,0.378,0.16,42.25,-67.45,0
2674092.0,-0.341,-0.326,0.021,-43.64,86.5,0
2674097.0,0.531,0.412,0.167,36.51,-72.55,0
2674102.0,-0.286,-0.527,-0.223,-55.45,128.02,0
2674107.0,0.557,0.33,0.083,30.4,-81.52,0
2674112.0,-0.295,-0.213,0.126,-33.56,66.86,0
2674117.0,0.322,0.28,-0.092,39.89,-105.88,0
2674122.0,-0.446,-0.393,-0.276,-36.81,121.75,0
2674127.0,0.275,0.24,-0.001,41.1,-90.15,0
2674132.0,-0.403,-0.247,0.052,-31.24,82.65,0
2674137.0,0.37,0.333,0.198,38.4,-61.87,0
2674142.0,-0.484,-0.419,-0.35,-35.02,125.87,0
2674147.0,0.576,0.302,0.05,27.55,-85.08,0
2674152.0,-0.391,-0.29,-0.063,-36.17,99.15,0
2674157.0,0.409,0.364,0.148,39.95,-70.12,0
2674162.0,-0.362,-0.39,-0.216,-42.76,120.82,0
2674167.0,0.423,0.34,0.282,33.79,-56.33,0
2674172.0,-0.413,0.374,0.071,41.74,80.22,0
2674177.0,0.315,0.419,0.143,50.44,-65.61,0
2674182.0,-0.432,-0.472,-0.123,-46.41,105.88,0
2674187.0,0.488,0.285,0.157,29.08,-72.12,0
2674192.0,-0.393,-0.314,-0.161,-36.41,112.27,0
2674197.0,0.37,0.4,0.164,44.62,-66.05,0
2674202.0,-0.415,-0.428,0.119,-44.78,74.0,0
2674207.0,0.366,0.345,-0.219,39.0,-120.88,0
2674212.0,-0.049,0.283,-0.051,75.99,136.33,0
2674217.0,0.416,0.352,-0.142,38.7,-108.85,0
2674222.0,-0.233,-0.378,-0.017,-58.29,94.29,0
2674227.0,0.588,0.307,-0.228,25.91,-111.2,0
2674232.0,-0.305,-0.342,0.018,-48.26,86.54,0
2674237.0,0.389,0.383,-0.056,44.24,-98.15,0
2674242.0,-0.441,-0.299,-0.039,-34.03,95.05,0
2674247.0,0.377,-0.263,-0.044,-34.71,-96.62,0
2674252.0,-0.228,0.283,0.141,46.51,58.38,0
2674257.0,0.196,-0.201,0.042,-45.14,-77.77,0
2674262.0,-0.511,0.323,0.105,31.8,78.42,0
2674267.0,0.497,-0.273,-0.14,-27.85,-105.68,0
2674272.0,-0.358,0.103,-0.118,15.3,108.27,0
2674277.0,0.456,-0.28,0.035,-31.45,-85.59,0
2674282.0,-0.3,0.441,0.105,54.2,70.78,0
2674287.0,0.121,-0.122,-0.216,-26.21,-150.7,0
2674292.0,-0.073,0.199,-0.01,69.75,98.07,0
2674297.0,0.121,-0.419,0.176,-62.93,-34.51,0
2674302.0,-0.302,0.268,-0.006,41.56,91.04,0
2674307.0,-0.061,-0.148,-0.075,-56.98,141.01,0
2674312.0,-0.161,0.228,0.153,45.72,46.59,0
2674317.0,0.081,-0.297,-0.025,-74.15,-107.01,0
2674322.0,-0.099,0.17,-0.096,50.9,134.27,0
2674327.0,0.258,0.019,0.109,3.93,-67.0,0
2674332.0,0.038,0.156,0.069,63.31,-28.63,0
2674337.0,0.241,-0.223,-0.085,-41.07,-109.32,0
2674342.0,-0.111,0.041,-0.13,13.42,139.53,0
2674347.0,0.143,-0.089,0.066,-29.33,-65.1,0
2674352.0,-0.19,0.189,0.102,41.26,61.71,0
2674357.0,0.112,-0.191,0.078,-54.53,-54.98,0
2674362.0,-0.109,0.235,0.188,47.19,29.94,0
2674367.0,0.095,-0.151,0.033,-56.32,-70.95,0
2674372.0,-0.106,0.132,-0.12,39.38,138.61,0
2674377.0,0.143,-0.206,-0.104,-49.38,-125.97,0
2674382.0,-0.075,0.177,0.15,46.57,26.55,0
2674387.0,0.239,-0.074,0.184,-13.83,-52.42,0
2674392.0,-0.065,0.014,-0.082,7.83,141.45,0
2674397.0,0.15,-0.153,-0.044,-44.42,-106.28,0
2674402.0,-0.14,0.007,0.172,1.88,39.13,0
2674407.0,0.287,0.06,0.205,9.65,-54.39,0
2674412.0,-0.164,0.024,0.011,8.33,86.07,0
2674417.0,0.246,-0.139,0.102,-27.53,-67.42,0
2674422.0,-0.082,0.046,0.09,20.47,42.32,0
2674427.0,0.298,0.017,0.117,3.01,-68.66,0
2674432.0,-0.128,0.012,0.191,3.0,33.79,0
2674437.0,0.219,-0.012,0.042,-3.05,-79.07,0
2674442.0,-0.178,-0.112,-0.238,-20.74,143.18,0
2674447.0,0.277,0.132,-0.032,25.3,-96.56,0
2674452.0,-0.156,-0.05,0.131,-13.82,50.06,0
2674457.0,0.2,0.089,0.2,17.38,-44.99,0
2674462.0,-0.281,-0.067,-0.046,-13.23,99.34,0
2674467.0,0.246,-0.029,-0.061,-6.46,-103.84,0
2674472.0,-0.393,-0.012,-0.085,-1.69,102.12,0
2674477.0,0.239,0.043,0.287,6.6,-39.78,0
2674482.0,-0.156,-0.014,0.148,-3.8,46.64,0
2674487.0,0.344,-0.009,-0.034,-1.57,-95.68,0
2674492.0,-0.228,-0.177,-0.252,-27.51,137.84,0
2674497.0,0.409,0.132,0.081,17.55,-78.83,0
2674502.0,-0.202,-0.098,0.198,-19.13,45.56,0
2674507.0,0.392,0.125,0.184,16.06,-64.89,0
2674512.0,-0.283,-0.223,-0.293,-28.65,135.94,0
2674517.0,0.231,0.07,-0.101,15.38,-113.63,0
2674522.0,-0.113,-0.144,0.109,-42.35,46.01,0
2674527.0,0.33,0.16,0.267,20.71,-50.94,0
2674532.0,-0.336,-0.225,-0.051,-33.51,98.63,0
2674537.0,0.272,0.062,0.004,12.9,-89.14,0
2674542.0,-0.322,-0.115,0.272,-15.25,49.76,0
2674547.0,0.308,0.199,0.313,24.36,-44.55,0
2674552.0,-0.223,-0.237,-0.118,-43.16,117.84,0
2674557.0,0.442,0.117,0.014,14.86,-88.23,0
2674562.0,-0.147,-0.215,-0.029,-55.19,101.34,0
2674567.0,0.421,0.292,0.069,34.43,-80.72,0
2674572.0,-0.307,-0.287,-0.044,-42.78,98.12,0
2674577.0,0.32,0.223,0.042,34.61,-82.46,0
2674582.0,-0.37,-0.287,-0.142,-35.96,111.02,0
2674587.0,0.222,0.287,0.076,50.79,-71.12,0
2674592.0,-0.326,-0.249,0.224,-32.15,55.5,0
2674597.0,0.354,0.206,0.126,28.75,-70.36,0
2674602.0,-0.446,-0.299,-0.243,-30.51,118.53,0
2674607.0,0.485,0.266,0.016,28.7,-88.11,0
2674612.0,-0.183,-0.206,0.105,-44.34,60.21,0
2674617.0,0.368,0.266,0.212,32.04,-60.01,0
2674622.0,-0.214,-0.361,-0.137,-54.89,122.68,0
2674627.0,0.44,0.208,0.184,23.62,-67.33,0
2674632.0,-0.341,-0.235,0.131,-32.72,68.98,0
2674637.0,0.251,0.232,0.2,35.91,-51.35,0
2674642.0,-0.398,-0.299,-0.092,-36.21,102.97,0
2674647.0,0.322,0.326,0.09,44.21,-74.36,0
2674652.0,-0.276,-0.247,0.016,-41.71,86.68,0
2674657.0,0.433,0.225,0.212,25.04,-63.85,0
2674662.0,-0.264,-0.34,-0.087,-50.71,108.21,0
2674667.0,0.562,0.251,0.016,24.1,-88.36,0
2674672.0,-0.398,-0.326,-0.257,-34.49,122.83,0
2674677.0,0.442,0.342,0.282,33.15,-57.49,0
2674682.0,-0.307,-0.314,0.169,-41.79,61.15,0
2674687.0,0.389,0.443,0.162,46.4,-67.4,0
2674692.0,-0.381,-0.419,0.011,-47.67,88.31,0
2674697.0,0.31,0.366,0.217,44.04,-55.03,0
2674702.0,-0.331,-0.457,0.124,-52.28,69.51,0
2674707.0,0.344,0.393,0.198,44.7,-60.07,0
2674712.0,-0.348,-0.268,-0.111,-36.28,107.67,0
2674717.0,0.358,0.237,0.074,32.95,-78.41,0
2674722.0,-0.295,-0.299,-0.041,-45.1,97.99,0
2674727.0,0.741,0.34,0.15,24.21,-78.55,0
2674732.0,-0.298,0.323,-0.008,47.35,91.52,0
2674737.0,0.485,0.34,0.105,34.41,-77.83,0
2674742.0,-0.381,-0.409,-0.02,-46.98,92.98,0
2674747.0,0.322,0.431,0.258,46.23,-51.35,0
2674752.0,-0.472,-0.436,-0.065,-42.41,97.88,0
2674757.0,0.294,0.307,0.246,38.67,-50.06,0
2674762.0,-0.367,-0.357,0.066,-43.71,79.76,0
2674767.0,0.421,0.381,0.162,40.19,-68.92,0
2674772.0,0.035,0.304,0.004,83.37,-83.39,0
2674777.0,0.418,0.388,0.284,37.5,-55.8,0
2674782.0,-0.147,-0.354,0.081,-64.69,61.21,0
2674787.0,0.624,0.311,0.057,26.42,-84.8,0
2674792.0,-0.487,-0.402,-0.369,-33.35,127.19,0
2674797.0,0.519,0.24,0.014,24.77,-88.49,0
2674802.0,-0.456,-0.371,0.15,-37.72,71.77,0
2674807.0,0.466,0.467,-0.288,40.44,-121.72,0
2674812.0,-0.039,0.285,-0.056,76.56,144.97,0
2674817.0,0.356,0.309,0.04,40.78,-83.59,0
2674822.0,-0.36,-0.378,0.057,-46.07,81.04,0
2674827.0,0.485,0.302,-0.393,25.78,-129.03,0
2674832.0,-0.391,-0.309,-0.017,-38.27,92.56,0
2674837.0,0.332,-0.369,0.153,-45.26,-65.33,0
2674842.0,-0.338,0.323,0.114,42.15,71.35,0
2674847.0,0.488,-0.338,-0.458,-26.77,-133.21,0
2674852.0,0.071,0.319,0.006,77.38,-84.8,0
2674857.0,0.459,-0.304,0.191,-31.45,-67.42,0
2674862.0,-0.398,0.438,0.033,47.64,85.29,0
2674867.0,0.351,-0.4,-0.353,-38.77,-135.12,0
2674872.0,-0.482,0.323,0.126,32.98,75.33,0
2674877.0,0.222,-0.352,0.217,-48.58,-45.61,0
2674882.0,0.011,0.287,0.124,66.61,-5.16,0
2674887.0,0.033,-0.287,-0.257,-47.96,-172.74,0
2674892.0,0.061,0.333,-0.02,79.02,-107.92,0
2674897.0,0.081,-0.239,0.03,-70.2,-69.33,0
2674902.0,0.006,0.23,0.057,76.05,-6.42,0
2674907.0,0.064,-0.335,-0.046,-76.77,-125.9,0
2674912.0,-0.144,0.189,0.028,52.13,79.03,0
2674917.0,-0.001,-0.211,0.095,-65.71,0.48,0
2674922.0,-0.099,0.352,0.097,68.47,45.44,0
2674927.0,0.152,-0.247,-0.065,-56.07,-113.21,0
2674932.0,-0.022,0.158,0.074,64.08,16.91,0
2674937.0,0.207,-0.287,-0.116,-50.41,-119.13,0
2674942.0,0.035,0.354,-0.058,79.15,-148.89,0
2674947.0,0.148,-0.16,0.076,-44.0,-62.79,0
2674952.0,-0.027,0.204,0.148,53.58,10.41,0
2674957.0,-0.03,-0.397,-0.35,-48.5,175.18,0
2674962.0,-0.128,0.201,-0.137,47.03,137.05,0
2674967.0,-0.013,-0.132,0.423,-17.27,1.73,0
2674972.0,-0.209,0.345,0.287,44.19,36.11,0
2674977.0,0.114,-0.299,-0.336,-40.14,-161.23,0
2674982.0,-0.168,0.249,-0.185,44.87,137.7,0
2674987.0,0.258,-0.194,0.248,-28.44,-46.08,0
2674992.0,0.076,0.235,0.193,48.51,-21.43,0
2674997.0,0.251,-0.431,-0.386,-43.1,-147.02,0
2675002.0,-0.077,0.232,-0.154,53.43,153.3,0
2675007.0,0.174,-0.153,0.318,-22.92,-28.71,0
2675012.0,-0.063,0.199,0.126,54.64,26.55,0
2675017.0,-0.034,-0.108,-0.223,-25.47,171.27,0
2675022.0,-0.209,-0.012,-0.046,-3.18,102.46,0
2675027.0,0.179,-0.057,0.39,-7.63,-24.65,0
2675032.0,-0.216,0.086,0.229,15.31,43.35,0
2675037.0,0.006,-0.172,-0.389,-23.91,-179.06,0
2675042.0,-0.221,0.141,-0.259,22.53,139.55,0
2675047.0,0.253,-0.237,0.179,-37.41,-54.74,0
2675052.0,0.011,0.196,0.212,42.72,-3.01,0
2675057.0,0.306,-0.096,-0.116,-16.32,-110.72,0
2675062.0,-0.092,0.117,-0.295,20.79,162.73,0
2675067.0,0.298,-0.208,0.157,-31.68,-62.21,0
2675072.0,-0.18,0.086,0.241,15.99,36.8,0
2675077.0,0.133,-0.072,0.138,-20.49,-43.97,0
2675082.0,-0.214,0.144,0.006,33.89,88.27,0
2675087.0,0.121,-0.158,-0.096,-45.54,-128.5,0
2675092.0,-0.192,0.014,0.002,4.29,89.5,0
2675097.0,0.241,-0.211,0.188,-34.54,-51.98,0
2675102.0,-0.092,0.218,0.097,58.44,43.28,0
2675107.0,0.255,0.053,-0.049,11.47,-100.78,0
2675112.0,-0.087,-0.048,0.153,-15.23,29.7,0
2675117.0,0.236,-0.115,0.26,-18.09,-42.23,0
2675122.0,-0.197,-0.041,0.016,-11.61,85.35,0
2675127.0,0.389,0.077,0.09,10.86,-76.95,0
2675132.0,-0.104,-0.05,0.105,-18.81,44.76,0
2675137.0,0.356,0.017,0.078,2.65,-77.6,0
2675142.0,-0.075,-0.098,-0.166,-28.31,155.67,0
2675147.0,0.313,0.081,-0.104,13.89,-108.33,0
2675152.0,-0.183,-0.031,-0.01,-9.63,93.22,0
2675157.0,0.119,-0.105,0.215,-23.21,-28.97,0
2675162.0,-0.216,-0.033,0.102,-7.96,64.7,0
2675167.0,0.126,0.06,0.117,19.24,-47.24,0
2675172.0,-0.276,-0.033,-0.008,-6.9,91.64,0
2675177.0,0.215,0.144,0.066,32.61,-72.83,0
2675182.0,-0.238,-0.057,-0.034,-13.43,98.19,0
2675187.0,0.358,-0.002,0.076,-0.36,-78.04,0
2675192.0,-0.298,-0.115,-0.137,-19.31,114.74,0
2675197.0,0.282,-0.098,0.033,-19.08,-83.36,0
2675202.0,-0.238,-0.065,-0.12,-13.61,116.86,0
2675207.0,0.33,0.096,0.011,16.21,-88.04,0
2675212.0,-0.161,-0.077,0.141,-19.69,48.92,0
2675217.0,0.308,0.235,0.236,31.15,-52.51,0
2675222.0,-0.334,-0.345,-0.195,-41.75,120.26,0
2675227.0,0.267,0.206,-0.001,37.61,-90.15,0
2675232.0,-0.269,-0.261,0.334,-31.29,38.8,0
2675237.0,0.351,0.287,0.234,34.26,-56.33,0
2675242.0,-0.233,-0.203,-0.396,-23.89,149.51,0
2675247.0,0.291,0.18,-0.159,28.44,-118.59,0
2675252.0,-0.13,-0.115,0.368,-16.4,19.47,0
2675257.0,0.38,0.103,0.425,10.24,-41.76,0
2675262.0,-0.271,-0.254,-0.281,-33.01,135.99,0
2675267.0,0.32,0.139,-0.003,23.47,-90.56,0
2675272.0,-0.262,-0.201,0.404,-22.67,32.95,0
2675277.0,0.363,0.254,0.5,22.34,-36.01,0
2675282.0,-0.202,-0.247,-0.063,-49.37,107.32,0
2675287.0,0.516,0.338,-0.001,33.18,-90.08,0
2675292.0,-0.279,-0.261,0.114,-40.91,67.71,0
2675297.0,0.512,0.184,0.074,19.64,-81.82,0
2675302.0,-0.185,-0.366,-0.125,-58.6,124.07,0
2675307.0,0.33,0.295,0.126,39.85,-69.05,0
2675312.0,-0.381,-0.213,-0.085,-28.6,102.49,0
2675317.0,0.253,0.16,0.066,31.54,-75.31,0
2675322.0,-0.41,-0.424,0.018,-45.9,87.43,0
2675327.0,0.421,0.386,0.346,35.28,-50.52,0
2675332.0,-0.298,0.429,-0.231,48.7,127.76,0
2675337.0,0.437,0.184,-0.099,22.36,-102.74,0
2675342.0,-0.326,-0.311,0.057,-43.2,80.14,0
2675347.0,0.497,0.309,0.404,25.75,-50.91,0
2675352.0,-0.41,-0.177,-0.204,-21.13,116.47,0
2675357.0,0.332,0.108,-0.183,15.88,-118.82,0
2675362.0,-0.36,-0.342,0.071,-43.01,78.82,0
2675367.0,0.445,0.328,0.318,30.98,-54.45,0
2675372.0,0.15,0.342,-0.175,56.01,-139.47,0
2675377.0,0.409,0.316,0.117,36.65,-74.07,0
2675382.0,-0.346,-0.383,0.047,-47.68,82.23,0
2675387.0,0.409,0.302,-0.24,32.48,-120.44,0
2675392.0,-0.295,-0.261,0.129,-39.01,66.47,0
2675397.0,0.366,0.297,-0.331,31.05,-132.17,0
2675402.0,-0.298,-0.258,-0.209,-35.4,125.07,0
2675407.0,0.5,0.244,0.085,25.73,-80.29,0
2675412.0,0.184,0.275,0.301,38.0,-31.38,0
2675417.0,0.361,0.388,-0.329,38.48,-132.34,0
2675422.0,-0.415,-0.493,-0.257,-45.29,121.76,0
2675427.0,0.435,0.412,0.076,43.01,-80.1,0
2675432.0,-0.295,0.477,0.378,44.83,38.03,0
2675437.0,0.346,-0.364,-0.434,-33.23,-141.41,0
2675442.0,-0.403,0.484,-0.281,44.56,124.87,0
2675447.0,0.468,-0.484,0.145,-44.59,-72.77,0
2675452.0,0.117,0.345,0.243,51.95,-25.57,0
2675457.0,0.507,-0.405,-0.468,-30.4,-132.7,0
2675462.0,-0.235,0.35,-0.231,46.7,134.4,0
2675467.0,0.545,-0.297,-0.171,-27.46,-107.39,0
2675472.0,-0.262,0.314,0.006,50.15,88.59,0
2675477.0,-0.147,-0.302,-0.135,-56.54,132.55,0
2675482.0,-0.125,0.536,-0.053,75.75,113.08,0
2675487.0,-0.192,-0.39,-0.137,-58.81,125.5,0
2675492.0,0.049,0.244,0.04,75.4,-51.06,0
2675497.0,-0.173,-0.448,-0.049,-68.11,105.68,0
2675502.0,0.038,0.472,0.224,64.26,-9.49,0
2675507.0,-0.013,-0.287,-0.214,-53.29,176.58,0
2675512.0,0.085,0.263,-0.075,66.67,-131.27,0
2675517.0,0.045,-0.455,0.217,-64.01,-11.63,0
2675522.0,0.026,0.462,0.105,76.88,-13.72,0
2675527.0,-0.01,-0.4,-0.642,-31.89,179.07,0
2675532.0,0.081,0.393,0.033,77.51,-67.86,0
2675537.0,-0.08,-0.409,0.394,-45.49,11.44,0
2675542.0,-0.032,0.429,-0.025,84.62,127.69,0
2675547.0,-0.03,-0.335,-0.41,-39.18,175.88,0
2675552.0,0.105,0.338,0.284,48.11,-20.2,0
2675557.0,-0.075,-0.381,0.176,-63.26,23.03,0
2675562.0,0.006,0.299,-0.128,66.89,-177.14,0
2675567.0,-0.058,-0.311,-0.257,-49.75,167.22,0
2675572.0,-0.056,0.34,0.21,57.42,14.9,0
2675577.0,-0.116,-0.378,-0.101,-67.87,131.19,0
2675582.0,-0.089,0.381,-0.164,63.92,151.34,0
2675587.0,0.014,-0.316,-0.092,-73.65,-171.58,0
2675592.0,0.035,0.223,0.1,64.59,-19.38,0
2675597.0,0.09,-0.512,-0.168,-69.56,-151.82,0
2675602.0,0.023,0.35,0.011,85.79,-64.07,0
2675607.0,0.061,-0.201,0.107,-58.46,-29.86,0
2675612.0,-0.001,0.335,0.1,73.42,0.46,0
2675617.0,-0.085,-0.39,-0.171,-63.97,153.64,0
2675622.0,-0.211,0.266,-0.039,51.03,100.46,0
2675627.0,-0.02,-0.129,0.102,-51.13,11.04,0
2675632.0,-0.063,0.151,0.145,43.61,23.45,0
2675637.0,0.081,-0.27,-0.08,-67.26,-134.69,0
2675642.0,-0.061,0.132,-0.156,38.16,158.8,0
2675647.0,0.219,-0.184,-0.156,-34.37,-125.46,0
2675652.0,0.014,0.345,0.193,60.68,-4.02,0
2675657.0,0.102,-0.311,-0.025,-71.34,-103.57,0
2675662.0,-0.044,0.254,0.033,77.82,53.23,0
2675667.0,0.085,-0.347,0.155,-63.0,-28.87,0
2675672.0,-0.13,0.273,0.064,62.04,63.83,0
2675677.0,0.078,-0.232,-0.065,-66.3,-129.89,0
2675682.0,0.011,0.247,-0.032,82.21,-160.67,0
2675687.0,0.167,-0.22,0.071,-50.53,-66.91,0
2675692.0,0.006,0.146,0.148,44.66,-2.47,0
2675697.0,0.167,-0.103,0.076,-29.31,-65.53,0
2675702.0,-0.08,0.18,0.059,61.06,53.46,0
2675707.0,0.169,-0.072,0.038,-22.49,-77.47,0
2675712.0,-0.156,-0.031,-0.003,-11.22,91.14,0
2675717.0,0.049,-0.129,0.042,-63.24,-49.42,0
2675722.0,-0.106,0.17,0.143,43.69,36.6,0
2675727.0,0.128,-0.019,0.028,-8.25,-77.7,0
2675732.0,-0.03,0.01,-0.108,4.91,164.77,0
2675737.0,0.162,-0.117,-0.185,-25.48,-138.8,0
2675742.0,-0.154,0.093,0.002,31.25,89.38,0
2675747.0,0.215,-0.074,0.081,-17.91,-69.4,0
2675752.0,-0.262,0.101,0.04,20.81,81.32,0
2675757.0,0.16,-0.103,-0.101,-28.55,-122.4,0
2675762.0,-0.063,0.031,0.102,14.56,31.66,0
2675767.0,0.248,0.053,0.267,8.23,-42.86,0
2675772.0,-0.188,0.007,0.057,2.12,73.17,0
2675777.0,0.229,-0.074,-0.068,-17.24,-106.48,0
2675782.0,-0.065,0.067,0.088,31.49,36.68,0
2675787.0,0.294,-0.081,-0.046,-15.3,-98.94,0
2675792.0,-0.168,-0.009,-0.278,-1.67,148.84,0
2675797.0,0.152,-0.096,0.002,-32.12,-89.37,0
2675802.0,-0.226,0.134,0.354,17.73,32.57,0
2675807.0,0.205,-0.029,0.164,-6.22,-51.27,0
2675812.0,-0.31,-0.077,-0.195,-11.82,122.15,0
2675817.0,0.207,-0.074,0.076,-18.55,-69.91,0
2675822.0,-0.195,0.058,0.191,11.92,45.58,0
2675827.0,0.409,0.012,0.1,1.64,-76.27,0
2675832.0,-0.075,0.005,0.05,3.1,56.55,0
2675837.0,0.435,0.022,0.095,2.78,-77.67,0
2675842.0,-0.113,-0.084,-0.195,-20.39,149.79,0
2675847.0,0.344,-0.029,0.011,-4.76,-88.13,0
2675852.0,-0.302,-0.1,0.193,-15.64,57.43,0
2675857.0,0.186,0.058,0.33,8.64,-29.42,0
2675862.0,-0.42,-0.062,-0.18,-7.75,113.24,0
2675867.0,0.14,0.134,-0.168,31.47,-140.15,0
2675872.0,-0.274,-0.189,0.095,-33.12,70.85,0
2675877.0,0.416,0.125,0.385,12.4,-47.22,0
2675882.0,-0.116,-0.247,-0.144,-53.11,141.29,0
2675887.0,0.44,0.235,-0.233,25.25,-117.91,0
2675892.0,-0.142,-0.158,0.272,-27.22,27.56,0
2675897.0,0.37,0.251,0.363,25.87,-45.55,0
2675902.0,-0.262,-0.141,-0.101,-26.7,111.15,0
2675907.0,0.248,0.158,-0.025,32.37,-95.67,0
2675912.0,-0.482,-0.17,0.011,-19.41,88.66,0
2675917.0,0.234,0.117,0.193,21.16,-50.43,0
2675922.0,-0.274,-0.105,0.04,-20.83,81.69,0
2675927.0,0.377,0.158,0.26,19.02,-55.42,0
2675932.0,-0.166,0.34,-0.008,63.96,92.73,0
2675937.0,0.442,0.149,0.085,18.25,-79.06,0
2675942.0,-0.24,-0.247,-0.199,-38.29,129.7,0
2675947.0,0.466,0.153,0.21,16.69,-65.75,0
2675952.0,-0.295,-0.223,0.1,-35.53,71.32,0
2675957.0,0.409,0.242,0.148,29.11,-70.12,0
2675962.0,-0.31,-0.258,-0.049,-39.51,98.92,0
2675967.0,0.306,0.335,0.131,45.23,-66.81,0
2675972.0,0.248,0.409,0.21,51.55,-49.77,0
2675977.0,0.437,0.177,0.145,21.04,-71.62,0
2675982.0,-0.166,-0.328,-0.058,-61.79,109.31,0
2675987.0,0.445,0.28,-0.353,26.28,-128.43,0
2675992.0,-0.168,-0.184,0.011,-47.51,86.18,0
2675997.0,0.337,0.28,-0.231,34.47,-124.4,0
2676002.0,-0.31,-0.338,0.064,-46.87,78.34,0
2676007.0,0.325,0.398,-0.092,49.67,-105.76,0
2676012.0,0.164,0.421,0.2,58.41,-39.37,0
2676017.0,0.435,0.285,-0.137,32.0,-107.51,0
2676022.0,-0.302,0.402,-0.034,52.89,96.46,0
2676027.0,0.375,-0.397,-0.247,-41.49,-123.4,0
2676032.0,-0.264,0.46,0.176,55.36,56.26,0
2676037.0,0.507,-0.299,-0.13,-29.76,-104.39,0
2676042.0,-0.391,0.347,-0.149,39.68,110.88,0
2676047.0,0.495,-0.405,-0.422,-31.88,-130.47,0
2676052.0,0.073,0.378,0.176,63.2,-22.59,0
2676057.0,0.44,-0.352,-0.01,-38.66,-91.34,0
2676062.0,-0.269,0.323,-0.214,43.26,128.48,0
2676067.0,-0.008,-0.402,-0.341,-49.72,178.66,0
2676072.0,0.112,0.419,0.332,50.1,-18.6,0
2676077.0,-0.106,-0.309,0.006,-71.0,86.52,0
2676082.0,-0.058,0.369,-0.178,63.09,161.87,0
2676087.0,-0.223,-0.409,-0.183,-54.81,129.27,0
2676092.0,0.026,0.369,0.272,53.45,-5.36,0
2676097.0,-0.305,-0.338,-0.187,-43.32,121.59,0
2676102.0,-0.003,0.307,-0.108,70.51,178.31,0
2676107.0,-0.171,-0.323,-0.135,-56.05,128.28,0
2676112.0,0.155,0.309,0.028,63.01,-79.74,0
2676117.0,-0.068,-0.294,-0.381,-37.23,169.91,0
2676122.0,0.011,0.46,-0.312,55.82,-177.95,0
2676127.0,-0.092,-0.433,-0.116,-71.18,141.56,0
2676132.0,0.071,0.381,0.193,61.6,-20.18,0
2676137.0,-0.324,-0.467,-0.35,-44.37,137.23,0
2676142.0,-0.214,0.441,-0.118,60.99,118.89,0
2676147.0,-0.25,-0.361,0.315,-41.94,38.39,0
2676152.0,0.002,0.469,0.464,45.34,-0.2,0
2676157.0,-0.178,-0.417,-0.53,-36.69,161.43,0
2676162.0,0.073,0.342,-0.329,45.47,-167.41,0
2676167.0,0.167,-0.333,0.131,-57.49,-51.86,0
2676172.0,0.296,0.369,0.148,48.1,-63.48,0
2676177.0,-0.025,-0.428,-0.537,-38.56,177.36,0
2676182.0,0.023,0.352,-0.209,59.15,-173.68,0
2676187.0,-0.046,-0.237,0.148,-56.84,17.4,0
2676192.0,-0.085,0.33,0.246,51.8,18.99,0
2676197.0,-0.233,-0.373,-0.096,-55.96,112.49,0
2676202.0,-0.097,0.34,0.112,66.52,40.82,0
2676207.0,-0.065,-0.383,0.03,-79.33,65.08,0
2676212.0,0.093,0.366,0.033,74.99,-70.49,0
2676217.0,-0.154,-0.369,-0.274,-49.57,150.63,0
2676222.0,0.136,0.405,0.064,69.67,-64.77,0
2676227.0,0.105,-0.349,-0.096,-67.85,-132.7,0
2676232.0,0.03,0.307,-0.056,78.3,-151.47,0
2676237.0,-0.073,-0.349,-0.168,-62.32,156.66,0
2676242.0,-0.03,0.39,0.107,74.12,15.42,0
2676247.0,-0.053,-0.376,0.076,-76.12,35.17,0
2676252.0,-0.106,0.338,0.028,71.99,75.22,0
2676257.0,0.049,-0.318,-0.123,-67.42,-158.06,0
2676262.0,-0.018,0.316,0.141,65.87,7.12,0
2676267.0,-0.032,-0.321,-0.077,-75.38,157.57,0
2676272.0,0.1,0.254,0.102,60.64,-44.3,0
2676277.0,0.004,-0.287,-0.07,-76.25,-176.74,0
2676282.0,0.042,0.369,-0.025,82.44,-120.24,0
2676287.0,0.076,-0.297,-0.164,-58.73,-155.13,0
2676292.0,-0.068,0.242,0.021,73.65,72.93,0
2676297.0,0.042,-0.371,-0.037,-81.42,-130.89,0
2676302.0,-0.104,0.352,0.016,73.39,81.21,0
2676307.0,-0.056,-0.266,-0.041,-75.33,126.56,0
2676312.0,-0.118,0.251,0.129,55.23,42.57,0
2676317.0,-0.125,-0.297,-0.135,-58.2,137.09,0
2676322.0,-0.109,0.311,-0.001,70.78,90.38,0
2676327.0,0.1,-0.23,0.095,-59.05,-46.38,0
2676332.0,-0.02,0.18,0.047,74.09,22.93,0
2676337.0,0.215,-0.342,-0.111,-54.78,-117.31,0
2676342.0,0.018,0.328,-0.058,79.47,-162.49,0
2676347.0,0.148,-0.256,0.045,-58.93,-73.13,0
2676352.0,-0.109,0.184,0.064,55.67,59.5,0
2676357.0,-0.02,-0.263,-0.077,-73.13,165.53,0
2676362.0,-0.216,0.283,0.078,50.86,70.1,0
2676367.0,0.023,-0.225,0.155,-55.16,-8.5,0
2676372.0,-0.123,0.153,0.021,50.89,80.38,0
2676377.0,0.117,-0.115,-0.171,-29.06,-145.68,0
2676382.0,-0.025,0.206,-0.041,76.82,149.15,0
2676387.0,0.205,-0.146,-0.025,-35.24,-96.86,0
2676392.0,-0.147,0.07,0.054,23.94,69.69,0
2676397.0,0.085,-0.199,0.035,-65.06,-67.6,0
2676402.0,-0.135,0.16,0.097,43.97,54.15,0
2676407.0,0.179,-0.132,0.172,-27.97,-46.16,0
2676412.0,-0.214,0.081,0.198,15.62,47.21,0
2676417.0,0.193,-0.129,0.133,-28.83,-55.38,0
2676422.0,-0.008,0.134,0.033,75.88,13.68,0
2676427.0,0.346,-0.108,-0.085,-16.8,-103.71,0
2676432.0,0.076,0.022,-0.108,9.28,-145.05,0
2676437.0,0.337,-0.191,-0.003,-29.62,-90.53,0
2676442.0,-0.147,0.096,0.028,32.67,79.2,0
2676447.0,0.203,0.074,0.109,17.88,-61.64,0
2676452.0,-0.336,0.019,0.069,3.21,78.44,0
2676457.0,-0.006,-0.203,0.074,-70.08,4.35,0
2676462.0,-0.305,0.038,0.026,7.15,85.2,0
2676467.0,0.109,0.026,0.121,9.19,-42.01,0
2676472.0,-0.204,0.067,-0.006,18.18,91.54,0
2676477.0,0.212,-0.074,-0.049,-18.8,-102.9,0
2676482.0,-0.013,-0.002,0.138,-0.96,5.28,0
2676487.0,0.361,0.07,0.064,10.74,-79.95,0
2676492.0,-0.262,-0.057,0.028,-12.3,83.89,0
2676497.0,0.389,-0.017,0.095,-2.38,-76.28,0
2676502.0,-0.298,-0.067,-0.013,-12.67,92.44,0
2676507.0,0.291,0.151,0.126,25.43,-66.58,0
2676512.0,-0.269,-0.182,-0.08,-32.96,106.51,0
2676517.0,0.234,0.01,0.081,2.24,-70.96,0
2676522.0,-0.113,-0.158,0.033,-53.24,73.86,0
2676527.0,0.442,0.314,0.157,33.76,-70.42,0
2676532.0,-0.259,0.362,-0.034,54.11,97.52,0
2676537.0,0.241,0.134,-0.044,28.71,-100.3,0
2676542.0,-0.094,-0.175,-0.053,-58.21,119.55,0
2676547.0,0.322,0.019,0.37,2.24,-41.04,0
2676552.0,-0.279,-0.036,0.167,-6.3,59.07,0
2676557.0,0.136,0.086,0.011,32.36,-85.26,0
2676562.0,-0.307,-0.096,0.014,-17.28,87.46,0
2676567.0,0.322,0.115,0.227,16.27,-54.88,0
2676572.0,0.15,0.271,-0.168,50.2,-138.29,0
2676577.0,0.416,0.211,-0.252,23.43,-121.23,0
2676582.0,-0.13,-0.261,0.129,-54.97,45.34,0
2676587.0,0.351,0.18,-0.384,19.05,-137.54,0
2676592.0,-0.211,-0.357,-0.118,-55.82,119.17,0
2676597.0,0.478,0.235,-0.319,22.21,-123.73,0
2676602.0,-0.302,-0.261,0.186,-36.3,58.41,0
2676607.0,0.339,0.295,-0.113,39.48,-108.46,0
2676612.0,0.102,0.314,-0.008,71.91,-94.42,0
2676617.0,0.215,-0.342,-0.209,-48.8,-134.23,0
2676622.0,-0.255,0.342,0.27,42.71,43.34,0
2676627.0,0.411,-0.311,-0.164,-35.12,-111.7,0
2676632.0,-0.276,0.357,-0.168,47.81,121.36,0
2676637.0,0.452,-0.302,-0.204,-31.32,-114.33,0
2676642.0,-0.255,0.352,0.167,49.15,56.76,0
2676647.0,0.385,-0.369,-0.154,-41.66,-111.81,0
2676652.0,0.076,0.323,-0.046,74.64,-121.36,0
2676657.0,0.294,-0.383,-0.214,-46.51,-126.05,0
2676662.0,0.114,0.443,0.232,59.77,-26.24,0
2676667.0,-0.247,-0.304,-0.125,-47.63,116.85,0
2676672.0,0.263,0.321,-0.099,48.84,-110.64,0
2676677.0,-0.231,-0.419,-0.298,-48.05,142.22,0
2676682.0,0.203,0.33,0.1,55.64,-63.78,0
2676687.0,-0.202,-0.251,-0.298,-34.95,145.84,0
2676692.0,0.188,0.407,-0.12,61.23,-122.6,0
2676697.0,-0.314,-0.402,-0.202,-47.1,122.7,0
2676702.0,0.078,0.4,0.21,60.74,-20.43,0
2676707.0,-0.37,-0.366,-0.092,-43.89,103.94,0
2676712.0,0.105,0.412,0.028,75.28,-75.0,0
2676717.0,-0.252,-0.457,-0.247,-52.31,134.44,0
2676722.0,0.066,0.311,-0.068,73.07,-135.65,0
2676727.0,-0.046,-0.314,-0.173,-60.25,165.03,0
2676732.0,0.131,0.45,-0.013,73.72,-95.54,0
2676737.0,-0.211,-0.29,-0.281,-39.48,143.02,0
2676742.0,0.078,0.232,-0.164,52.04,-154.44,0
2676747.0,-0.219,-0.383,-0.111,-57.38,116.88,0
2676752.0,0.085,0.431,0.164,66.73,-27.44,0
2676757.0,-0.465,-0.311,-0.175,-32.04,110.67,0
2676762.0,0.097,0.45,-0.092,73.45,-133.28,0
2676767.0,-0.2,-0.448,-0.044,-65.47,102.39,0
2676772.0,0.198,0.398,0.289,48.62,-34.41,0
2676777.0,-0.092,-0.352,-0.307,-47.66,163.36,0
2676782.0,0.1,0.33,-0.281,47.96,-160.44,0
2676787.0,-0.137,-0.438,-0.175,-63.04,141.97,0
2676792.0,0.229,0.4,0.39,41.51,-30.46,0
2676797.0,-0.219,-0.268,-0.12,-47.04,118.84,0
2676802.0,0.03,0.347,-0.238,55.39,-172.73,0
2676807.0,-0.07,-0.467,-0.243,-61.59,163.85,0
2676812.0,0.066,0.295,0.289,44.82,-12.91,0
2676817.0,-0.171,-0.318,-0.116,-57.06,124.1,0
2676822.0,-0.085,0.448,-0.192,64.87,156.25,0
2676827.0,-0.214,-0.306,-0.233,-44.09,137.44,0
2676832.0,0.059,0.273,0.222,49.93,-14.9,0
2676837.0,-0.417,-0.397,-0.142,-42.03,108.79,0
2676842.0,0.169,0.436,-0.152,62.47,-131.85,0
2676847.0,-0.276,-0.294,-0.082,-45.62,106.56,0
2676852.0,0.179,0.33,0.176,52.76,-45.37,0
2676857.0,-0.006,-0.531,-0.12,-77.22,177.34,0
2676862.0,0.057,0.503,0.035,82.44,-58.15,0
2676867.0,0.004,-0.294,-0.058,-78.8,-176.08,0
2676872.0,0.114,0.455,0.064,73.96,-60.75,0
2676877.0,-0.034,-0.527,-0.235,-65.7,171.7,0
2676882.0,0.057,0.417,-0.073,77.54,-142.01,0
2676887.0,-0.041,-0.266,-0.049,-76.47,139.51,0
2676892.0,-0.075,0.371,0.057,75.78,52.9,0
2676897.0,-0.118,-0.431,0.026,-74.33,77.76,0
2676902.0,-0.161,0.292,0.311,39.86,27.44,0
2676907.0,-0.087,-0.263,-0.159,-55.49,151.28,0
2676912.0,-0.02,0.307,-0.051,79.87,158.63,0
2676917.0,0.042,-0.316,0.026,-81.1,-58.8,0
2676922.0,0.128,0.283,0.095,60.51,-53.51,0
2676927.0,0.011,-0.431,-0.48,-41.93,-178.67,0
2676932.0,0.143,0.496,-0.178,65.28,-141.23,0
2676937.0,0.083,-0.314,0.097,-67.79,-40.42,0
2676942.0,0.03,0.302,0.1,70.93,-16.9,0
2676947.0,-0.07,-0.366,-0.111,-70.29,147.64,0
2676952.0,-0.164,0.271,0.105,54.34,57.4,0
2676957.0,-0.101,-0.175,0.059,-56.11,59.74,0
2676962.0,-0.168,0.242,-0.01,55.11,93.5,0
2676967.0,0.071,-0.294,0.014,-76.2,-79.12,0
2676972.0,-0.015,0.309,0.229,53.38,3.79,0
2676977.0,0.136,-0.328,-0.065,-65.33,-115.72,0
2676982.0,0.004,0.362,-0.192,62.0,-178.81,0
2676987.0,0.239,-0.321,-0.094,-51.35,-111.52,0
2676992.0,0.119,0.311,0.188,54.41,-32.26,0
2676997.0,0.136,-0.333,-0.046,-66.69,-108.81,0
2677002.0,-0.121,0.295,0.09,62.93,53.17,0
2677007.0,0.018,-0.196,0.186,-46.39,-5.64,0
2677012.0,-0.188,0.218,0.138,43.1,53.62,0
2677017.0,0.016,-0.323,-0.077,-76.27,-168.34,0
2677022.0,-0.128,0.259,0.076,60.13,59.27,0
2677027.0,0.112,-0.148,-0.02,-52.59,-100.09,0
2677032.0,0.04,0.206,-0.077,67.1,-152.71,0
2677037.0,0.181,-0.287,-0.108,-53.68,-120.91,0
2677042.0,-0.07,0.254,0.081,67.15,41.04,0
2677047.0,0.145,-0.172,0.088,-45.43,-58.83,0
2677052.0,-0.171,0.151,0.023,41.21,82.26,0
2677057.0,0.021,-0.179,-0.008,-82.95,-110.85,0
2677062.0,-0.118,0.096,0.09,32.81,52.61,0
2677067.0,0.188,-0.1,-0.073,-26.47,-111.07,0
2677072.0,-0.032,0.132,-0.001,76.38,91.29,0
2677077.0,0.222,-0.156,0.023,-34.89,-84.02,0
2677082.0,-0.073,0.144,0.006,63.1,84.91,0
2677087.0,0.294,-0.043,-0.029,-8.29,-95.73,0
2677092.0,-0.267,-0.065,0.126,-12.35,64.67,0
2677097.0,0.03,-0.136,0.035,-71.19,-40.75,0
2677102.0,-0.298,0.103,0.117,17.86,68.61,0
2677107.0,0.119,0.034,0.057,14.31,-64.49,0
2677112.0,-0.154,0.081,-0.003,27.87,91.16,0
2677117.0,0.279,-0.17,0.03,-31.16,-83.79,0
2677122.0,-0.032,0.046,0.172,14.63,10.53,0
2677127.0,0.373,-0.069,0.121,-10.03,-71.96,0
2677132.0,-0.183,0.211,-0.046,48.19,104.19,0
2677137.0,0.265,-0.136,0.011,-27.22,-87.57,0
2677142.0,-0.164,0.026,0.064,8.55,68.66,0
2677147.0,0.203,0.041,0.124,9.74,-58.59,0
2677152.0,-0.142,-0.009,0.109,-3.03,52.4,0
2677157.0,0.222,-0.098,0.145,-20.29,-56.77,0
2677162.0,-0.25,-0.096,-0.027,-20.85,96.18,0
2677167.0,0.207,0.189,-0.12,38.26,-120.13,0
2677172.0,0.306,0.352,0.196,44.13,-57.38,0
2677177.0,0.294,-0.1,-0.281,-13.89,-133.72,0
2677182.0,-0.317,-0.108,0.074,-18.31,76.94,0
2677187.0,0.294,0.113,-0.096,20.02,-108.19,0
2677192.0,-0.202,0.002,0.009,0.7,87.49,0
2677197.0,0.243,-0.053,-0.252,-8.53,-136.01,0
2677202.0,-0.085,-0.117,0.15,-34.23,29.4,0
2677207.0,0.334,-0.287,-0.156,-37.89,-115.06,0
2677212.0,0.136,0.352,-0.001,68.92,-90.3,0
2677217.0,0.219,-0.237,-0.211,-37.87,-133.93,0
2677222.0,-0.353,0.22,0.251,26.98,54.6,0
2677227.0,0.27,-0.218,-0.12,-36.4,-114.06,0
2677232.0,-0.271,0.297,-0.087,46.19,107.76,0
2677237.0,0.306,-0.292,-0.317,-33.56,-136.02,0
2677242.0,-0.121,0.204,0.026,58.82,78.0,0
2677247.0,0.423,-0.335,-0.207,-35.45,-116.04,0
2677252.0,0.236,0.441,0.038,61.5,-80.96,0
2677257.0,-0.295,-0.361,-0.211,-44.86,125.6,0
2677262.0,0.354,0.445,0.176,48.42,-63.48,0
2677267.0,-0.386,-0.314,-0.113,-37.92,106.34,0
2677272.0,0.052,0.287,-0.18,56.86,-163.95,0
2677277.0,-0.535,-0.311,-0.372,-25.54,124.81,0
2677282.0,0.021,0.307,0.107,70.42,-10.97,0
2677287.0,-0.269,-0.254,0.004,-43.33,89.13,0
2677292.0,0.112,0.285,0.035,67.66,-72.52,0
2677297.0,-0.331,-0.263,-0.317,-29.88,133.72,0
2677302.0,0.167,0.39,-0.02,66.72,-96.79,0
2677307.0,-0.195,-0.417,-0.295,-49.67,146.59,0
2677312.0,0.14,0.326,-0.12,60.4,-130.61,0
2677317.0,-0.326,-0.29,-0.278,-34.02,130.47,0
2677322.0,0.275,0.469,0.143,56.6,-62.5,0
2677327.0,-0.25,-0.397,-0.178,-52.34,125.46,0
2677332.0,0.133,0.374,0.131,63.43,-45.5,0
2677337.0,-0.279,-0.388,-0.003,-54.31,90.64,0
2677342.0,0.073,0.424,0.136,69.99,-28.41,0
2677347.0,-0.286,-0.235,-0.278,-30.45,134.26,0
2677352.0,0.102,0.297,-0.144,59.22,-144.72,0
2677357.0,-0.235,-0.34,-0.211,-47.05,131.92,0
2677362.0,0.265,0.304,0.26,39.31,-45.51,0
2677367.0,-0.214,-0.249,-0.175,-41.98,129.37,0
2677372.0,0.231,0.381,-0.101,56.44,-113.63,0
2677377.0,-0.314,-0.424,-0.271,-45.57,130.78,0
2677382.0,0.14,0.338,0.145,59.1,-44.02,0
2677387.0,-0.185,-0.328,-0.178,-51.94,133.85,0
2677392.0,0.071,0.5,0.006,81.89,-84.8,0
2677397.0,-0.219,-0.333,-0.202,-48.19,132.71,0
2677402.0,0.162,0.287,0.04,59.86,-76.14,0
2677407.0,0.409,-0.33,-0.281,-33.67,-124.5,0
2677412.0,0.239,0.374,0.109,54.9,-65.37,0
2677417.0,-0.314,-0.194,-0.101,-30.4,107.85,0
2677422.0,-0.099,0.357,-0.195,58.53,153.05,0
2677427.0,-0.283,-0.412,-0.484,-36.27,149.67,0
2677432.0,-0.037,0.304,0.109,69.22,18.55,0
2677437.0,-0.178,-0.314,0.188,-50.42,43.37,0
2677442.0,0.1,0.314,-0.049,70.52,-115.98,0
2677447.0,-0.14,-0.402,-0.281,-52.05,153.56,0
2677452.0,0.339,0.417,0.287,43.18,-49.8,0
2677457.0,-0.183,-0.275,-0.113,-52.01,121.78,0
2677462.0,0.083,0.386,-0.207,59.99,-158.11,0
2677467.0,-0.166,-0.294,-0.252,-44.28,146.64,0
2677472.0,0.095,0.345,0.37,42.05,-14.38,0
2677477.0,-0.159,-0.282,-0.132,-53.79,129.82,0
2677482.0,0.045,0.261,-0.24,46.9,-169.46,0
2677487.0,-0.116,-0.407,-0.056,-72.48,115.74,0
2677492.0,-0.018,0.354,0.239,55.97,4.21,0
2677497.0,-0.214,-0.263,-0.161,-44.51,126.99,0
2677502.0,0.023,0.386,-0.113,73.31,-168.45,0
2677507.0,-0.14,-0.278,-0.221,-46.72,147.71,0
2677512.0,0.1,0.393,-0.044,74.49,-113.71,0
2677517.0,-0.121,-0.359,-0.216,-55.42,150.86,0
2677522.0,-0.018,0.39,0.153,68.53,6.57,0
2677527.0,-0.106,-0.345,0.105,-66.62,45.41,0
2677532.0,-0.006,0.247,0.071,73.87,4.49,0
2677537.0,-0.154,-0.249,-0.293,-36.96,152.25,0
2677542.0,-0.018,0.378,0.069,79.38,14.33,0
2677547.0,-0.003,-0.273,-0.02,-85.78,170.87,0
2677552.0,0.107,0.268,-0.082,63.31,-127.52,0
2677557.0,-0.037,-0.292,-0.326,-41.64,173.58,0
2677562.0,-0.006,0.407,-0.02,87.1,164.3,0
2677567.0,-0.032,-0.309,-0.008,-83.92,103.9,0
2677572.0,0.026,0.287,0.047,79.43,-28.43,0
2677577.0,-0.247,-0.438,-0.228,-52.47,132.68,0
2677582.0,-0.111,0.462,0.088,72.98,51.62,0
2677587.0,-0.032,-0.328,0.153,-64.59,11.82,0
2677592.0,-0.013,0.364,0.203,60.83,3.6,0
2677597.0,0.121,-0.328,-0.12,-62.47,-134.79,0
2677602.0,0.114,0.342,-0.006,71.55,-92.76,0
2677607.0,0.184,-0.338,-0.111,-57.57,-121.13,0
2677612.0,0.1,0.352,-0.049,72.5,-115.98,0
2677617.0,-0.044,-0.402,-0.178,-65.51,166.14,0
2677622.0,-0.109,0.29,0.088,64.27,51.01,0
2677627.0,-0.101,-0.294,0.129,-60.92,38.25,0
2677632.0,-0.13,0.249,0.208,45.48,32.07,0
2677637.0,0.09,-0.213,0.026,-66.24,-74.14,0
2677642.0,-0.001,0.259,0.133,62.72,0.34,0
2677647.0,0.136,-0.256,-0.029,-61.54,-102.25,0
2677652.0,0.14,0.295,0.026,64.14,-79.66,0
2677657.0,0.148,-0.335,-0.135,-59.18,-132.4,0
2677662.0,-0.085,0.316,-0.149,61.52,150.44,0
2677667.0,-0.032,-0.292,-0.044,-79.48,143.92,0
2677672.0,-0.135,0.249,0.148,51.23,42.4,0
2677677.0,-0.044,-0.278,0.121,-65.07,19.88,0
2677682.0,-0.29,0.29,-0.128,42.41,113.72,0
2677687.0,0.009,-0.227,-0.211,-47.06,-177.62,0
2677692.0,-0.039,0.254,0.124,62.92,17.53,0
2677697.0,0.136,-0.275,-0.044,-62.62,-107.9,0
2677702.0,-0.092,0.259,-0.154,55.28,149.2,0
2677707.0,0.184,-0.239,-0.065,-50.85,-109.6,0
2677712.0,-0.03,0.261,0.176,55.58,9.5,0
2677717.0,0.066,-0.338,-0.101,-70.27,-146.81,0
2677722.0,-0.118,0.22,-0.096,55.31,129.25,0
2677727.0,0.193,-0.103,0.332,-14.99,-30.18,0
2677732.0,-0.097,0.22,0.179,47.31,28.37,0
2677737.0,0.093,-0.273,-0.274,-43.37,-161.31,0
2677742.0,-0.118,0.117,-0.185,28.13,147.45,0
2677747.0,-0.24,-0.196,0.188,-32.73,51.89,0
2677752.0,-0.104,0.216,0.097,56.56,46.8,0
2677757.0,0.04,-0.196,-0.164,-49.38,-166.29,0
2677762.0,-0.166,0.062,0.083,18.56,63.41,0
2677767.0,0.148,-0.263,-0.099,-55.98,-123.81,0
2677772.0,-0.171,0.134,0.227,25.3,36.99,0
2677777.0,0.061,-0.045,-0.013,-35.89,-101.67,0
2677782.0,-0.116,0.103,0.109,32.9,46.6,0
2677787.0,-0.334,-0.388,-0.29,-41.24,131.04,0
2677792.0,-0.204,0.029,0.009,8.02,87.52,0
2677797.0,0.21,-0.021,-0.094,-5.33,-114.15,0
2677802.0,-0.099,0.271,0.052,67.56,62.3,0
2677807.0,0.243,-0.345,-0.226,-46.07,-132.85,0
2677812.0,-0.142,0.316,0.095,61.6,56.21,0
2677817.0,0.181,-0.218,-0.125,-44.68,-124.65,0
2677822.0,-0.2,0.354,0.169,53.56,49.69,0
2677827.0,-0.393,-0.287,-0.123,-34.87,107.34,0
2677832.0,-0.257,0.28,0.011,47.45,87.49,0
2677837.0,0.229,-0.258,-0.324,-33.09,-144.74,0
2677842.0,-0.106,0.235,0.042,64.04,68.24,0
2677847.0,-0.417,-0.299,-0.18,-33.35,113.36,0
2677852.0,0.15,0.335,0.052,64.66,-70.9,0
2677857.0,-0.36,-0.213,-0.305,-24.31,130.26,0
2677862.0,0.279,0.436,0.026,57.23,-84.76,0
