time_ms,accel_x,accel_y,accel_z,pitch,roll,sync
2288052.0,0.007,-0.015,-0.001,-63.14,-100.95,0
2288057.0,-0.019,0.004,-0.013,10.34,125.33,0
2288062.0,-0.007,-0.008,-0.016,-24.16,156.28,0
2288067.0,0.036,0.009,0.003,13.95,-84.7,0
2288072.0,-0.043,0.016,-0.011,20.11,104.41,0
2288077.0,0.01,-0.01,-0.025,-20.43,-158.85,0
2288082.0,0.012,0.033,-0.006,67.42,-117.01,0
2288087.0,-0.052,-0.013,0.011,-13.19,78.64,0
2288092.0,0.027,-0.032,0.02,-43.55,-52.88,0
2288097.0,-0.014,0.016,0.027,27.8,27.36,0
2288102.0,-0.005,0.011,0.011,44.84,23.35,0
2288107.0,0.022,0.011,-0.033,16.24,-146.21,0
2288112.0,-0.012,-0.003,-0.006,-12.53,117.95,0
2288117.0,-0.028,-0.02,-0.033,-24.49,138.81,0
2288122.0,-0.021,-0.013,0.025,-20.92,40.56,0
2288127.0,-0.005,-0.02,-0.018,-46.43,165.96,0
2288132.0,-0.021,-0.003,-0.045,-3.42,154.43,0
2288137.0,0.022,-0.001,0.001,-1.47,-87.48,0
2288142.0,-0.002,0.007,-0.028,13.38,175.56,0
2288147.0,0.015,0.021,0.023,38.04,-32.98,0
2288152.0,0.0,0.004,0.025,9.64,-0.55,0
2288157.0,-0.005,0.021,-0.03,34.53,171.42,0
2288162.0,-0.009,-0.01,-0.061,-9.28,171.34,0
2288167.0,0.007,-0.008,-0.006,-38.63,-129.99,0
2288172.0,-0.014,0.026,0.018,48.68,38.56,0
2288177.0,-0.019,0.011,-0.011,27.54,120.21,0
2288182.0,-0.009,-0.008,-0.021,-18.9,155.61,0
2288187.0,-0.012,0.009,-0.023,19.26,152.96,0
2288192.0,-0.009,-0.02,-0.054,-19.75,170.21,0
2288197.0,-0.014,-0.001,-0.013,-1.64,133.5,0
2288202.0,0.005,0.004,0.023,10.39,-12.59,0
2288207.0,0.031,0.026,0.037,28.04,-40.39,0
2288212.0,-0.024,0.002,-0.04,2.27,149.19,0
2288217.0,-0.007,0.002,-0.004,13.03,118.88,0
2288222.0,-0.005,-0.02,0.001,-76.73,78.1,0
2288227.0,0.01,-0.01,-0.057,-10.02,-170.14,0
2288232.0,0.01,0.002,0.003,10.04,-71.15,0
2288237.0,0.01,-0.01,-0.021,-23.96,-154.51,0
2288242.0,0.024,0.014,0.003,29.49,-82.11,0
2288247.0,-0.007,-0.001,0.018,-1.68,21.4,0
2288252.0,0.005,0.004,0.034,6.92,-8.3,0
2288257.0,-0.005,0.04,0.044,42.19,5.9,0
2288262.0,-0.005,0.002,0.006,14.06,38.36,0
2288267.0,-0.021,-0.022,-0.001,-45.99,93.86,0
2288272.0,-0.014,0.011,-0.016,28.3,138.2,0
2288277.0,0.01,-0.003,-0.013,-10.08,-143.79,0
2288282.0,-0.012,-0.01,0.044,-12.53,14.91,0
2288287.0,0.005,0.021,0.032,32.88,-8.91,0
2288292.0,0.034,-0.017,-0.004,-27.01,-96.47,0
2288297.0,0.015,-0.027,-0.047,-28.69,-162.71,0
2288302.0,0.003,-0.003,-0.016,-10.44,-170.54,0
2288307.0,0.015,0.021,0.037,27.89,-21.61,0
2288312.0,-0.019,-0.025,0.02,-41.59,43.24,0
2288317.0,0.01,0.002,0.034,2.93,-15.89,0
2288322.0,0.019,-0.001,0.023,-1.08,-40.75,0
2288327.0,0.019,-0.025,0.023,-39.51,-40.75,0
2288332.0,0.0,-0.01,-0.009,-49.61,-178.41,0
2288337.0,0.0,-0.005,0.034,-8.82,-0.4,0
2288342.0,0.003,0.019,0.023,39.37,-6.67,0
2288347.0,-0.024,0.004,-0.018,8.06,127.51,0
2288352.0,-0.002,0.019,0.003,77.9,32.73,0
2288357.0,-0.007,-0.003,-0.013,-11.07,152.62,0
2288362.0,0.003,0.031,-0.033,43.1,-175.38,0
2288367.0,-0.009,0.007,0.056,6.65,9.46,0
2288372.0,-0.005,0.019,0.015,49.32,16.53,0
2288377.0,-0.012,0.016,-0.04,21.35,163.55,0
2288382.0,0.012,0.026,-0.025,42.47,-154.31,0
2288387.0,-0.002,-0.001,-0.018,-1.75,173.25,0
2288392.0,0.01,0.026,0.003,68.08,-71.15,0
2288397.0,-0.005,0.016,0.003,70.77,53.61,0
2288402.0,-0.012,0.007,-0.006,26.51,117.95,0
2288407.0,0.007,0.009,-0.001,50.03,-100.95,0
2288412.0,0.027,-0.027,0.015,-41.24,-60.03,0
2288417.0,-0.017,-0.027,-0.037,-33.37,156.14,0
2288422.0,0.007,0.019,0.025,35.59,-16.6,0
2288427.0,-0.005,0.031,-0.016,61.72,163.94,0
2288432.0,-0.012,-0.003,-0.006,-12.53,117.95,0
2288437.0,0.012,0.019,-0.028,31.5,-156.27,0
2288442.0,0.007,-0.008,-0.001,-45.68,-100.95,0
2288447.0,-0.031,0.009,-0.011,15.38,109.63,0
2288452.0,0.005,0.014,-0.023,30.41,-167.66,0
2288457.0,0.0,0.002,-0.006,16.42,-177.8,0
2288462.0,-0.002,-0.025,-0.013,-61.0,170.87,0
2288467.0,0.007,0.023,-0.04,30.04,-169.42,0
2288472.0,-0.014,0.011,-0.021,24.56,145.55,0
2288477.0,-0.005,0.021,0.003,74.93,53.61,0
2288482.0,0.019,0.016,-0.021,29.8,-136.71,0
2288487.0,0.003,-0.003,0.056,-3.01,-2.69,0
2288492.0,0.012,0.035,0.037,42.31,-18.32,0
2288497.0,0.01,0.011,0.008,41.83,-50.33,0
2288502.0,0.007,0.004,0.02,11.16,-20.26,0
2288507.0,-0.012,0.021,-0.013,49.68,138.81,0
2288512.0,-0.009,-0.02,0.011,-54.47,41.55,0
2288517.0,0.01,0.016,0.006,54.93,-59.65,0
2288522.0,-0.045,0.019,-0.025,19.72,119.29,0
2288527.0,-0.014,0.009,0.025,17.49,29.57,0
2288532.0,0.005,-0.003,0.034,-4.84,-8.3,0
2288537.0,0.012,0.021,0.018,44.29,-34.57,0
2288542.0,-0.043,-0.001,-0.011,-0.72,104.41,0
2288547.0,0.0,-0.013,0.039,-17.7,-0.35,0
2288552.0,0.012,-0.003,-0.004,-12.99,-107.41,0
2288557.0,0.015,0.016,-0.035,23.15,-157.32,0
2288562.0,0.007,0.011,-0.011,40.67,-146.02,0
2288567.0,-0.017,-0.022,0.008,-50.2,63.77,0
2288572.0,0.0,-0.017,0.015,-48.49,-0.89,0
2288577.0,0.0,-0.003,-0.04,-4.25,-179.65,0
2288582.0,0.017,0.026,0.025,40.53,-34.32,0
2288587.0,-0.021,0.035,0.018,51.91,50.26,0
2288592.0,0.012,-0.008,0.054,-8.01,-12.83,0
2288597.0,0.019,0.016,-0.013,34.5,-124.66,0
2288602.0,0.003,-0.005,0.023,-13.28,-6.67,0
2288607.0,-0.002,-0.001,0.001,-13.32,66.02,0
2288612.0,-0.002,0.007,-0.013,26.0,170.87,0
2288617.0,-0.002,-0.017,0.001,-82.25,66.02,0
2288622.0,-0.019,-0.013,-0.013,-28.39,125.33,0
2288627.0,0.015,-0.001,-0.018,-1.37,-141.25,0
2288632.0,0.01,0.011,0.03,20.05,-18.3,0
2288637.0,0.012,-0.003,0.008,-11.38,-56.31,0
2288642.0,-0.007,-0.022,-0.023,-42.64,163.19,0
2288647.0,-0.009,-0.015,0.02,-33.94,24.9,0
2288652.0,0.012,-0.02,-0.054,-19.56,-167.28,0
2288657.0,-0.019,-0.003,-0.011,-7.68,120.21,0
2288662.0,0.0,-0.008,-0.03,-14.39,-179.55,0
2288667.0,0.022,-0.003,0.027,-4.83,-38.6,0
2288672.0,0.003,0.023,0.003,79.67,-38.15,0
2288677.0,0.0,0.021,0.003,80.9,-4.08,0
2288682.0,0.0,-0.008,0.003,-66.53,-4.08,0
2288687.0,0.012,0.033,0.011,63.93,-49.21,0
2288692.0,-0.005,-0.025,-0.001,-78.98,107.52,0
2288697.0,-0.012,0.023,-0.03,35.85,158.75,0
2288702.0,-0.007,0.009,-0.018,24.85,159.11,0
2288707.0,0.0,0.016,0.034,25.17,-0.4,0
2288712.0,-0.019,-0.029,-0.009,-54.64,114.5,0
2288717.0,-0.021,0.004,0.013,9.63,58.75,0
2288722.0,0.01,-0.01,-0.021,-23.96,-154.51,0
2288727.0,0.003,-0.029,-0.006,-77.01,-157.07,0
2288732.0,0.01,0.016,-0.035,24.05,-164.31,0
2288737.0,0.007,0.016,0.023,34.36,-18.25,0
2288742.0,0.01,0.023,0.001,67.13,-84.42,0
2288747.0,0.022,-0.015,-0.016,-29.01,-125.95,0
2288752.0,-0.036,-0.008,0.008,-11.95,77.15,0
2288757.0,-0.002,0.002,0.018,5.87,6.93,0
2288762.0,-0.002,-0.017,0.02,-40.57,6.12,0
2288767.0,0.022,0.021,-0.001,43.87,-93.77,0
2288772.0,-0.009,-0.025,0.013,-56.94,35.84,0
2288777.0,-0.021,-0.029,-0.028,-39.92,142.5,0
2288782.0,0.007,0.004,0.001,29.48,-82.64,0
2288787.0,0.007,0.002,-0.006,10.73,-129.99,0
2288792.0,0.003,-0.001,0.003,-7.46,-38.15,0
2288797.0,0.027,0.035,0.001,53.05,-87.93,0
2288802.0,-0.024,0.004,0.008,9.58,71.05,0
2288807.0,0.019,0.009,0.015,20.05,-51.69,0
2288812.0,-0.021,-0.041,-0.009,-60.88,112.02,0
2288817.0,-0.002,0.002,0.023,4.64,5.47,0
2288822.0,-0.017,0.021,0.03,31.71,29.09,0
2288827.0,-0.005,0.019,0.001,75.96,78.1,0
2288832.0,0.022,0.026,0.011,46.81,-64.19,0
2288837.0,-0.012,-0.008,0.042,-10.14,15.73,0
2288842.0,0.003,0.016,0.003,75.26,-38.15,0
2288847.0,-0.005,-0.034,-0.08,-22.93,176.76,0
2288852.0,0.0,0.026,0.001,87.81,-14.02,0
2288857.0,0.019,-0.027,0.018,-45.68,-47.59,0
2288862.0,0.022,0.023,-0.006,45.9,-105.94,0
2288867.0,0.005,0.016,0.02,38.01,-14.04,0
2288872.0,0.015,-0.005,0.023,-11.27,-32.98,0
2288877.0,-0.019,0.023,-0.028,34.83,145.74,0
2288882.0,-0.012,-0.013,0.027,-22.87,23.26,0
2288887.0,0.007,-0.01,0.023,-23.16,-18.25,0
2288892.0,-0.007,0.019,0.037,26.36,10.66,0
2288897.0,0.029,0.002,-0.009,3.48,-106.57,0
2288902.0,0.015,-0.01,0.006,-32.85,-68.52,0
2288907.0,-0.007,0.004,-0.006,24.4,131.88,0
2288912.0,0.007,-0.008,-0.011,-30.24,-146.02,0
2288917.0,-0.019,0.038,-0.016,56.86,129.88,0
2288922.0,-0.024,-0.01,0.011,-21.34,66.04,0
2288927.0,0.0,0.004,0.025,9.64,-0.55,0
2288932.0,-0.012,-0.005,0.001,-24.43,85.33,0
2288937.0,-0.012,0.002,-0.011,6.51,133.19,0
2288942.0,0.012,0.028,0.037,35.95,-18.32,0
2288947.0,-0.007,-0.027,0.056,-25.47,7.06,0
2288952.0,-0.007,-0.008,-0.016,-24.16,156.28,0
2288957.0,-0.014,0.002,0.056,1.82,14.15,0
2288962.0,-0.005,0.023,0.03,37.9,8.71,0
2288967.0,0.027,0.031,0.027,38.74,-44.24,0
2288972.0,-0.019,0.014,-0.004,35.58,101.45,0
2288977.0,0.012,-0.003,0.015,-8.57,-38.55,0
2288982.0,-0.014,-0.015,-0.011,-39.8,127.94,0
2288987.0,-0.014,-0.01,0.001,-35.6,86.12,0
2288992.0,0.005,0.033,0.03,47.59,-9.61,0
2288997.0,-0.017,0.004,0.006,13.59,70.82,0
2289002.0,0.024,0.031,0.001,51.63,-87.73,0
2289007.0,-0.009,0.014,-0.011,43.72,139.71,0
2289012.0,0.012,0.011,0.011,35.29,-49.21,0
2289017.0,-0.038,0.023,0.006,31.27,81.42,0
2289022.0,-0.012,0.011,-0.016,30.11,143.41,0
2289027.0,0.005,0.007,0.003,47.63,-56.31,0
2289032.0,0.005,-0.008,0.027,-15.59,-10.44,0
2289037.0,0.015,0.045,0.013,66.53,-48.48,0
2289042.0,-0.005,0.021,-0.028,36.72,170.7,0
2289047.0,0.007,0.016,0.039,22.07,-10.7,0
2289052.0,-0.009,0.014,0.032,22.45,16.23,0
2289057.0,-0.019,-0.022,-0.047,-23.6,158.05,0
2289062.0,-0.012,0.004,-0.035,6.54,161.45,0
2289067.0,0.012,0.014,0.006,45.65,-64.8,0
2289072.0,0.01,0.016,0.02,35.9,-26.02,0
2289077.0,0.0,-0.001,-0.042,-0.76,-179.67,0
2289082.0,-0.009,0.004,-0.011,16.33,139.71,0
2289087.0,0.01,0.004,0.003,22.18,-71.15,0
2289092.0,0.0,-0.017,-0.042,-22.34,-179.67,0
2289097.0,-0.012,-0.001,0.034,-0.88,18.79,0
2289102.0,-0.019,0.002,0.034,2.67,28.75,0
2289107.0,-0.021,-0.008,-0.016,-16.27,126.56,0
2289112.0,-0.012,-0.027,-0.028,-41.73,157.1,0
2289117.0,-0.002,0.031,0.003,82.57,32.73,0
2289122.0,0.015,0.014,0.008,39.55,-60.86,0
2289127.0,0.019,-0.02,0.034,-26.49,-29.36,0
2289132.0,-0.007,-0.013,0.025,-25.86,15.58,0
2289137.0,-0.012,0.016,0.003,53.02,74.05,0
2289142.0,0.005,-0.008,-0.016,-25.03,-162.35,0
2289147.0,-0.007,0.004,-0.025,9.13,164.7,0
2289152.0,-0.019,0.009,0.044,10.65,23.24,0
2289157.0,0.003,0.002,-0.013,7.65,-168.89,0
2289162.0,-0.009,-0.005,0.008,-23.35,48.92,0
2289167.0,0.003,-0.008,0.008,-42.14,-17.93,0
2289172.0,0.003,-0.02,-0.013,-55.27,-168.89,0
2289177.0,0.012,-0.02,-0.03,-31.2,-157.96,0
2289182.0,-0.017,-0.003,0.008,-9.11,63.77,0
2289187.0,-0.019,0.004,-0.04,5.49,154.55,0
2289192.0,-0.012,0.031,-0.018,54.69,147.19,0
2289197.0,-0.024,-0.022,-0.001,-42.95,93.47,0
2289202.0,0.003,0.014,0.013,46.3,-11.51,0
2289207.0,-0.024,0.026,0.037,30.46,32.74,0
2289212.0,0.01,0.007,-0.001,33.73,-98.32,0
2289217.0,0.01,0.021,-0.006,61.02,-122.38,0
2289222.0,-0.005,0.016,-0.001,73.59,107.52,0
2289227.0,-0.002,0.014,-0.047,16.38,177.37,0
2289232.0,-0.012,0.011,-0.03,19.42,158.75,0
2289237.0,-0.005,0.009,0.03,16.71,8.71,0
2289242.0,0.0,0.021,0.03,35.26,-0.46,0
2289247.0,0.007,0.002,0.027,3.71,-15.21,0
2289252.0,0.012,0.016,0.003,51.99,-74.65,0
2289257.0,0.007,-0.015,-0.004,-60.77,-117.3,0
2289262.0,0.0,-0.005,0.03,-10.21,-0.46,0
2289267.0,-0.038,0.038,0.03,38.02,52.05,0
2289272.0,0.019,-0.013,0.011,-29.58,-61.49,0
2289277.0,-0.009,-0.025,-0.016,-53.16,149.42,0
2289282.0,0.031,-0.008,-0.035,-9.36,-138.1,0
2289287.0,-0.024,0.026,0.008,45.81,71.05,0
2289292.0,0.034,-0.015,-0.016,-21.82,-115.08,0
2289297.0,-0.012,0.021,-0.013,49.68,138.81,0
2289302.0,-0.005,0.026,-0.006,73.35,143.84,0
2289307.0,0.017,0.014,0.011,34.62,-58.21,0
2289312.0,-0.007,0.002,-0.011,8.03,147.77,0
2289317.0,-0.002,-0.005,-0.006,-39.07,160.91,0
2289322.0,0.012,-0.022,0.011,-53.89,-49.21,0
2289327.0,-0.007,-0.003,0.02,-7.9,19.05,0
2289332.0,-0.012,0.016,-0.004,52.7,108.08,0
2289337.0,0.0,0.009,-0.023,21.42,-179.4,0
2289342.0,0.01,0.007,-0.016,19.6,-148.15,0
2289347.0,0.015,0.033,-0.023,50.44,-147.57,0
2289352.0,0.0,0.021,-0.035,30.98,-179.61,0
2289357.0,-0.005,0.002,-0.004,17.15,130.1,0
2289362.0,0.005,0.019,-0.021,41.26,-166.28,0
2289367.0,0.036,0.016,0.018,21.92,-63.89,0
2289372.0,-0.007,0.009,-0.042,11.92,170.64,0
2289377.0,0.0,0.023,-0.004,80.68,-176.42,0
2289382.0,0.022,0.016,-0.018,29.72,-129.87,0
2289387.0,0.0,0.011,-0.03,20.72,-179.55,0
2289392.0,0.012,0.011,0.008,37.87,-56.31,0
2289397.0,0.0,-0.005,-0.057,-5.41,-179.76,0
2289402.0,0.022,0.007,-0.021,12.46,-133.38,0
2289407.0,0.0,-0.003,0.02,-8.35,-0.68,0
2289412.0,0.0,0.009,-0.006,55.37,-177.8,0
2289417.0,0.012,-0.01,-0.009,-34.14,-125.22,0
2289422.0,-0.012,0.011,-0.013,32.64,138.81,0
2289427.0,-0.019,-0.013,0.003,-33.12,79.95,0
2289432.0,0.015,0.016,0.018,35.21,-39.5,0
2289437.0,0.0,0.007,-0.033,11.5,-179.58,0
2289442.0,0.015,-0.015,-0.049,-16.18,-163.51,0
2289447.0,0.019,0.009,0.003,24.62,-80.19,0
2289452.0,0.024,0.004,0.011,9.11,-66.46,0
2289457.0,-0.005,0.026,0.025,45.52,10.35,0
2289462.0,0.022,0.019,0.023,30.69,-44.07,0
2289467.0,0.012,0.007,0.034,10.27,-19.5,0
2289472.0,-0.021,0.007,0.011,15.57,63.69,0
2289477.0,-0.014,0.021,-0.023,37.88,148.43,0
2289482.0,-0.009,0.031,0.008,67.94,48.92,0
2289487.0,-0.009,0.021,-0.061,18.7,171.34,0
2289492.0,-0.014,0.009,-0.006,30.29,113.78,0
2289497.0,-0.005,-0.022,0.001,-78.12,78.1,0
2289502.0,-0.017,0.021,0.006,50.19,70.82,0
2289507.0,-0.031,-0.005,-0.021,-8.2,123.69,0
2289512.0,-0.024,-0.001,-0.004,-1.33,99.18,0
2289517.0,0.019,0.021,0.015,40.34,-51.69,0
2289522.0,0.007,0.009,-0.009,38.41,-139.27,0
2289527.0,0.017,-0.001,0.013,-1.5,-52.74,0
2289532.0,0.003,-0.02,0.018,-47.74,-8.45,0
2289537.0,0.003,0.019,-0.011,58.66,-166.55,0
2289542.0,-0.002,0.021,0.006,73.7,20.55,0
2289547.0,0.015,0.019,-0.016,40.83,-137.25,0
2289552.0,0.012,0.023,-0.025,39.7,-154.31,0
2289557.0,0.01,0.007,-0.004,32.16,-111.31,0
2289562.0,-0.005,0.014,-0.004,66.7,130.1,0
2289567.0,0.005,0.026,0.023,48.18,-12.59,0
2289572.0,-0.021,0.014,0.03,20.7,35.67,0
2289577.0,-0.024,0.026,-0.018,40.78,127.51,0
2289582.0,0.0,0.009,0.008,47.92,-1.68,0
2289587.0,0.005,0.028,0.032,40.94,-8.91,0
2289592.0,0.003,-0.02,-0.033,-31.11,-175.38,0
2289597.0,0.007,0.019,0.011,55.28,-35.16,0
2289602.0,-0.009,0.007,0.054,6.94,9.88,0
2289607.0,0.0,0.004,-0.025,9.46,-179.46,0
2289612.0,-0.009,-0.008,-0.04,-10.74,166.78,0
2289617.0,-0.019,0.026,0.018,44.85,46.87,0
2289622.0,0.003,-0.001,0.042,-0.77,-3.62,0
2289627.0,-0.002,0.011,0.013,41.05,9.46,0
2289632.0,-0.007,0.011,-0.006,50.75,131.88,0
2289637.0,0.005,-0.025,0.001,-78.2,-79.21,0
2289642.0,0.01,-0.015,-0.001,-56.39,-98.32,0
2289647.0,-0.033,0.011,-0.021,16.26,121.74,0
2289652.0,-0.021,0.011,0.025,19.2,40.56,0
2289657.0,0.022,0.021,-0.035,27.0,-148.07,0
2289662.0,0.0,-0.01,0.03,-18.85,-0.46,0
2289667.0,0.015,0.031,0.011,59.5,-54.19,0
2289672.0,0.012,-0.008,0.015,-21.56,-38.55,0
2289677.0,0.005,0.021,0.018,48.73,-15.84,0
2289682.0,0.017,0.007,-0.047,7.56,-160.09,0
2289687.0,0.022,-0.001,0.015,-1.2,-54.88,0
2289692.0,0.007,0.021,-0.018,46.89,-157.81,0
2289697.0,0.005,-0.029,-0.004,-77.82,-127.3,0
2289702.0,0.022,0.007,-0.018,13.14,-129.87,0
2289707.0,0.003,-0.008,-0.016,-25.79,-170.54,0
2289712.0,0.019,0.004,0.006,11.81,-73.49,0
2289717.0,0.015,0.002,-0.052,1.96,-164.23,0
2289722.0,0.015,-0.013,-0.021,-26.4,-144.65,0
2289727.0,0.024,-0.027,-0.042,-28.97,-150.15,0
2289732.0,-0.012,0.023,0.001,63.28,85.33,0
2289737.0,0.01,-0.013,-0.018,-31.22,-151.65,0
2289742.0,0.005,-0.015,0.001,-71.07,-79.21,0
2289747.0,0.007,0.007,0.018,19.03,-22.73,0
2289752.0,0.007,0.007,-0.037,9.87,-168.76,0
2289757.0,-0.019,-0.005,0.018,-11.66,46.87,0
2289762.0,0.003,-0.02,0.046,-22.96,-3.25,0
2289767.0,-0.005,0.004,-0.023,10.23,168.8,0
2289772.0,0.022,0.026,0.023,39.45,-44.07,0
2289777.0,-0.014,-0.003,-0.011,-9.36,127.94,0
2289782.0,0.003,-0.017,0.008,-63.71,-17.93,0
2289787.0,-0.024,0.019,-0.009,36.4,109.98,0
2289792.0,-0.009,0.023,0.011,58.95,41.55,0
2289797.0,0.005,-0.008,-0.011,-32.6,-155.46,0
2289802.0,0.007,-0.003,-0.042,-3.95,-170.01,0
2289807.0,-0.017,0.014,0.015,31.5,47.15,0
2289812.0,0.017,-0.005,-0.013,-13.87,-128.26,0
2289817.0,-0.002,0.004,0.03,8.09,4.15,0
2289822.0,0.0,-0.003,0.015,-10.91,-0.89,0
2289827.0,0.01,0.011,0.02,27.02,-26.02,0
2289832.0,-0.005,-0.017,0.013,-51.64,19.38,0
2289837.0,-0.007,0.016,0.001,66.6,82.14,0
2289842.0,0.003,-0.015,-0.018,-39.07,-171.76,0
2289847.0,0.01,0.016,0.011,48.37,-42.98,0
2289852.0,-0.014,-0.01,0.006,-33.61,67.86,0
2289857.0,-0.014,-0.001,0.042,-0.73,18.73,0
2289862.0,0.019,-0.01,0.025,-17.8,-37.91,0
2289867.0,-0.014,-0.02,-0.025,-34.16,150.9,0
2289872.0,0.01,0.009,0.006,38.41,-59.65,0
2289877.0,0.0,0.035,-0.018,62.77,-179.25,0
2289882.0,0.003,-0.005,-0.033,-9.3,-175.38,0
2289887.0,0.031,-0.034,0.006,-46.9,-79.62,0
2289892.0,0.039,0.002,-0.006,2.69,-99.17,0
2289897.0,-0.007,-0.005,0.023,-12.79,17.15,0
2289902.0,0.0,-0.02,0.001,-87.13,-14.02,0
2289907.0,0.017,0.009,-0.011,24.0,-122.94,0
2289912.0,0.007,0.007,0.03,12.21,-14.04,0
2289917.0,0.003,-0.008,-0.021,-20.45,-172.71,0
2289922.0,0.012,-0.015,0.023,-30.24,-28.48,0
2289927.0,0.015,0.004,0.001,16.12,-86.25,0
2289932.0,-0.012,0.007,0.003,28.5,74.05,0
2289937.0,0.012,-0.02,0.027,-33.39,-24.1,0
2289942.0,0.015,0.004,-0.018,10.28,-141.25,0
2289947.0,-0.002,0.009,0.015,30.23,8.0,0
2289952.0,-0.002,-0.003,0.001,-51.39,66.02,0
2289957.0,-0.009,-0.02,-0.006,-60.35,123.69,0
2289962.0,-0.002,0.004,0.011,21.47,11.56,0
2289967.0,-0.024,0.019,0.025,28.41,43.59,0
2289972.0,0.022,-0.022,0.008,-43.55,-69.51,0
2289977.0,-0.005,-0.013,0.025,-26.34,10.35,0
2289982.0,-0.002,0.019,-0.001,82.07,123.68,0
2289987.0,-0.021,-0.027,-0.004,-51.17,100.19,0
2289992.0,-0.007,0.016,-0.004,63.92,118.88,0
2289997.0,-0.009,-0.001,0.001,-3.41,84.14,0
2290002.0,-0.009,0.019,0.018,42.88,27.79,0
2290007.0,-0.028,0.004,-0.004,8.37,97.66,0
2290012.0,-0.005,-0.027,0.044,-31.27,5.9,0
2290017.0,0.017,-0.013,0.025,-22.57,-34.32,0
2290022.0,0.003,-0.025,0.018,-53.83,-8.45,0
2290027.0,-0.002,-0.003,-0.013,-12.27,170.87,0
2290032.0,-0.014,-0.013,-0.04,-16.54,160.43,0
2290037.0,-0.012,0.002,-0.04,2.54,163.55,0
2290042.0,0.0,-0.032,-0.03,-46.4,-179.55,0
2290047.0,0.007,-0.015,0.015,-41.23,-25.84,0
2290052.0,-0.002,-0.01,0.027,-20.31,4.51,0
2290057.0,-0.012,-0.003,-0.035,-4.58,161.45,0
2290062.0,-0.002,-0.001,0.042,-0.77,2.96,0
2290067.0,-0.019,-0.01,0.011,-25.09,60.88,0
2290072.0,-0.002,0.016,0.013,51.03,9.46,0
2290077.0,-0.012,0.004,0.02,10.3,30.26,0
2290082.0,-0.014,0.016,0.032,24.8,23.76,0
2290087.0,0.027,0.021,0.018,33.31,-56.31,0
2290092.0,-0.012,-0.008,0.013,-23.91,42.22,0
2290097.0,-0.026,0.007,0.011,13.24,68.02,0
2290102.0,0.015,0.026,-0.006,58.37,-113.08,0
2290107.0,-0.026,-0.005,0.018,-9.62,55.83,0
2290112.0,0.012,0.011,-0.006,39.78,-117.01,0
2290117.0,-0.045,0.016,-0.011,19.18,103.68,0
2290122.0,0.01,0.019,0.027,32.66,-19.78,0
2290127.0,-0.024,0.011,-0.011,23.59,114.92,0
2290132.0,-0.002,-0.003,-0.004,-33.9,150.64,0
2290137.0,0.01,0.023,-0.006,63.57,-122.38,0
2290142.0,0.012,0.009,-0.025,17.76,-154.31,0
2290147.0,0.024,0.004,-0.018,7.96,-126.96,0
2290152.0,-0.002,0.002,-0.006,15.57,160.91,0
2290157.0,-0.028,-0.001,-0.059,-0.49,154.18,0
2290162.0,0.0,-0.017,-0.011,-57.54,-178.75,0
2290167.0,0.003,0.016,0.023,35.56,-6.67,0
2290172.0,-0.017,-0.02,0.039,-24.83,22.82,0
2290177.0,-0.014,-0.01,0.039,-13.65,19.79,0
2290182.0,-0.014,0.026,0.011,55.64,53.28,0
2290187.0,-0.007,0.014,0.018,35.96,21.4,0
2290192.0,0.015,-0.01,0.025,-19.35,-30.39,0
2290197.0,0.015,0.021,0.015,44.76,-43.62,0
2290202.0,0.007,0.004,-0.006,23.59,-129.99,0
2290207.0,0.005,-0.005,-0.004,-40.23,-127.3,0
2290212.0,-0.009,0.023,-0.001,68.0,98.74,0
2290217.0,-0.021,-0.01,-0.018,-19.89,130.49,0
2290222.0,0.022,0.023,0.027,33.8,-38.6,0
2290227.0,0.024,-0.022,-0.018,-36.15,-126.96,0
2290232.0,0.007,-0.02,0.011,-56.82,-35.16,0
2290237.0,-0.009,-0.001,-0.03,-1.01,162.8,0
2290242.0,-0.007,-0.02,-0.004,-68.09,118.88,0
2290247.0,0.007,-0.027,-0.021,-50.86,-160.18,0
2290252.0,0.012,0.021,-0.001,59.64,-96.71,0
2290257.0,0.031,-0.005,0.006,-9.52,-79.62,0
2290262.0,0.003,0.007,-0.04,9.44,-176.21,0
2290267.0,0.024,-0.025,0.006,-44.59,-76.63,0
2290272.0,0.015,0.033,-0.009,62.77,-120.55,0
2290277.0,-0.019,-0.003,-0.004,-8.7,101.45,0
2290282.0,0.005,-0.001,0.018,-1.74,-15.84,0
2290287.0,0.0,0.023,0.032,36.09,-0.43,0
2290292.0,0.015,-0.01,0.008,-31.22,-60.86,0
2290297.0,0.0,-0.003,-0.03,-5.59,-179.55,0
2290302.0,0.0,0.019,-0.016,49.64,-179.13,0
2290307.0,0.019,0.016,-0.023,28.31,-139.84,0
2290312.0,0.027,0.016,-0.009,30.11,-107.97,0
2290317.0,0.005,0.031,-0.006,75.33,-141.07,0
2290322.0,0.003,-0.001,-0.028,-1.15,-174.58,0
2290327.0,0.01,-0.034,0.061,-28.95,-9.17,0
2290332.0,0.005,0.026,0.03,40.57,-9.61,0
2290337.0,-0.033,0.019,-0.006,28.78,100.59,0
2290342.0,-0.005,-0.017,-0.033,-27.78,172.05,0
2290347.0,-0.024,-0.034,0.013,-51.61,61.39,0
2290352.0,0.017,0.007,0.003,20.92,-78.84,0
2290357.0,-0.005,0.007,0.015,22.51,16.53,0
2290362.0,-0.009,0.011,0.001,50.56,84.14,0
2290367.0,-0.019,0.004,-0.006,11.99,108.22,0
2290372.0,-0.026,-0.01,0.046,-10.77,29.33,0
2290377.0,0.029,-0.005,-0.004,-10.37,-97.53,0
2290382.0,0.017,-0.017,0.023,-31.55,-37.06,0
2290387.0,-0.017,0.011,0.011,30.22,57.47,0
2290392.0,0.003,0.009,0.011,39.71,-14.04,0
2290397.0,0.01,-0.01,0.044,-12.66,-12.56,0
2290402.0,0.01,-0.022,-0.006,-62.26,-122.38,0
2290407.0,-0.033,-0.022,0.003,-33.46,84.25,0
2290412.0,0.015,0.007,0.027,12.08,-28.15,0
2290417.0,0.0,0.007,0.027,13.64,-0.5,0
2290422.0,-0.009,-0.027,-0.061,-23.45,171.34,0
2290427.0,0.027,-0.001,0.008,-1.15,-72.97,0
2290432.0,-0.009,0.002,0.006,9.5,58.39,0
2290437.0,0.019,0.014,0.046,15.34,-22.66,0
2290442.0,-0.009,-0.01,0.008,-39.29,48.92,0
2290447.0,0.027,0.004,-0.035,5.5,-142.76,0
2290452.0,-0.012,0.011,0.008,38.63,55.24,0
2290457.0,0.015,0.004,-0.025,8.22,-150.08,0
2290462.0,-0.002,0.007,0.03,12.55,4.15,0
2290467.0,-0.002,0.004,-0.018,13.0,173.25,0
2290472.0,0.017,0.016,-0.042,19.62,-158.03,0
2290477.0,0.005,0.019,0.001,74.61,-79.21,0
2290482.0,-0.024,0.004,0.066,3.47,19.87,0
2290487.0,0.005,-0.008,0.008,-38.98,-31.7,0
2290492.0,-0.024,-0.017,-0.021,-28.88,130.98,0
2290497.0,0.01,0.004,0.006,20.4,-59.65,0
2290502.0,-0.009,-0.003,0.013,-10.49,35.84,0
2290507.0,0.012,0.002,-0.004,8.16,-107.41,0
2290512.0,-0.019,-0.015,-0.035,-20.58,151.58,0
2290517.0,0.007,-0.003,-0.006,-16.95,-129.99,0
2290522.0,-0.009,0.004,0.003,23.09,70.25,0
2290527.0,-0.012,0.011,-0.018,27.8,147.19,0
2290532.0,-0.024,-0.02,-0.001,-39.7,93.47,0
2290537.0,0.015,-0.001,0.025,-1.11,-30.39,0
2290542.0,-0.021,0.021,0.006,43.56,74.91,0
2290547.0,-0.017,-0.003,-0.011,-8.46,123.69,0
2290552.0,0.01,-0.003,0.006,-14.55,-59.65,0
2290557.0,-0.005,-0.029,-0.016,-60.69,163.94,0
2290562.0,0.029,0.019,-0.035,22.27,-140.35,0
2290567.0,-0.021,-0.017,0.03,-25.36,35.67,0
2290572.0,0.048,-0.029,0.023,-28.87,-64.94,0
2290577.0,-0.031,0.035,0.011,47.29,71.17,0
2290582.0,0.024,0.019,0.044,20.31,-28.76,0
2290587.0,0.036,0.002,0.032,2.17,-48.41,0
2290592.0,-0.021,0.019,-0.016,35.03,126.56,0
2290597.0,0.048,0.002,-0.033,1.81,-124.08,0
2290602.0,-0.038,0.021,-0.013,27.48,109.4,0
2290607.0,0.036,0.028,0.011,36.8,-73.75,0
2290612.0,-0.045,0.033,-0.04,28.69,131.29,0
2290617.0,0.003,0.019,0.027,34.14,-5.51,0
2290622.0,-0.014,0.031,0.011,60.04,53.28,0
2290627.0,-0.036,0.002,-0.03,2.25,130.22,0
2290632.0,0.01,0.021,0.027,35.89,-19.78,0
2290637.0,0.017,0.021,0.027,33.13,-31.91,0
2290642.0,0.031,0.028,0.025,35.13,-51.55,0
2290647.0,0.017,0.011,-0.028,19.31,-148.53,0
2290652.0,-0.002,-0.001,0.003,-7.98,32.73,0
2290657.0,0.019,-0.02,0.023,-33.57,-40.75,0
2290662.0,-0.009,-0.008,-0.016,-22.87,149.42,0
2290667.0,0.01,0.014,0.001,54.46,-84.42,0
2290672.0,0.015,0.011,0.008,34.32,-60.86,0
2290677.0,-0.009,-0.015,0.006,-53.7,58.39,0
2290682.0,-0.021,-0.017,-0.025,-27.59,139.98,0
2290687.0,-0.012,0.019,-0.006,54.47,117.95,0
2290692.0,0.029,0.002,0.068,1.42,-23.08,0
2290697.0,-0.021,0.004,0.001,11.22,87.42,0
2290702.0,-0.024,-0.022,-0.013,-39.07,119.49,0
2290707.0,-0.002,0.023,-0.006,74.27,160.91,0
2290712.0,0.01,0.028,-0.03,41.61,-161.98,0
2290717.0,0.007,0.009,0.023,20.83,-18.25,0
2290722.0,-0.021,-0.032,0.027,-42.46,37.98,0
2290727.0,0.0,0.004,0.042,5.8,-0.33,0
2290732.0,-0.002,-0.005,-0.013,-21.49,170.87,0
2290737.0,0.01,0.016,-0.037,22.76,-165.27,0
2290742.0,-0.005,-0.022,0.013,-58.2,19.38,0
2290747.0,0.012,-0.013,0.006,-42.88,-64.8,0
2290752.0,0.0,0.009,0.03,16.9,-0.46,0
2290757.0,-0.014,-0.005,0.039,-7.3,19.79,0
2290762.0,0.022,0.004,-0.011,9.83,-116.82,0
2290767.0,0.003,-0.003,-0.028,-6.04,-174.58,0
2290772.0,0.029,0.004,0.008,8.0,-74.3,0
2290777.0,-0.024,-0.029,0.02,-43.3,49.68,0
2290782.0,0.015,-0.046,0.027,-56.09,-28.15,0
2290787.0,0.017,0.004,-0.006,13.15,-110.11,0
2290792.0,0.034,-0.017,0.027,-21.75,-51.04,0
2290797.0,0.015,-0.005,0.006,-18.81,-68.52,0
2290802.0,-0.007,0.026,-0.013,59.64,152.62,0
2290807.0,0.007,0.033,0.006,74.1,-52.25,0
2290812.0,-0.005,0.014,-0.011,49.2,157.56,0
2290817.0,-0.017,0.028,-0.035,36.08,154.7,0
2290822.0,-0.014,0.007,0.013,19.08,47.53,0
2290827.0,-0.024,0.004,0.015,8.52,57.12,0
2290832.0,-0.021,0.009,0.013,19.89,58.75,0
2290837.0,-0.017,-0.041,-0.033,-48.49,153.1,0
2290842.0,0.015,0.026,0.025,41.76,-30.39,0
2290847.0,-0.017,0.007,0.039,8.84,22.82,0
2290852.0,-0.007,0.028,0.02,52.94,19.05,0
2290857.0,0.007,-0.005,-0.045,-6.75,-170.54,0
2290862.0,0.0,-0.015,0.02,-36.57,-0.68,0
2290867.0,0.003,0.026,-0.047,28.74,-176.79,0
2290872.0,0.007,-0.013,0.03,-22.27,-14.04,0
2290877.0,-0.014,-0.013,0.018,-28.94,38.56,0
2290882.0,-0.014,0.016,0.03,26.23,25.44,0
2290887.0,0.022,0.014,-0.035,18.53,-148.07,0
2290892.0,0.019,-0.044,-0.033,-49.04,-149.22,0
2290897.0,-0.048,0.038,0.044,30.19,47.24,0
2290902.0,0.015,0.081,-0.011,77.25,-127.02,0
2290907.0,0.015,-0.017,-0.042,-21.22,-160.88,0
2290912.0,-0.119,0.011,-0.013,5.42,96.4,0
2290917.0,0.146,-0.003,0.037,-1.12,-75.85,0
2290922.0,-0.048,-0.013,0.039,-11.47,50.51,0
2290927.0,0.022,0.078,0.008,73.49,-69.51,0
2290932.0,0.082,0.026,-0.004,17.5,-92.69,0
2290937.0,-0.074,-0.015,-0.035,-10.34,115.29,0
2290942.0,0.041,-0.02,-0.052,-16.64,-141.63,0
2290947.0,0.022,-0.008,0.018,-15.41,-50.88,0
2290952.0,-0.05,0.04,0.015,37.49,72.97,0
2290957.0,0.06,0.045,-0.004,36.73,-93.65,0
2290962.0,-0.012,-0.013,0.018,-30.53,33.51,0
2290967.0,0.003,-0.013,0.066,-10.8,-2.3,0
2290972.0,-0.012,-0.001,0.003,-2.62,74.05,0
2290977.0,0.003,0.007,0.018,20.3,-8.45,0
2290982.0,0.003,-0.001,0.034,-0.93,-4.37,0
2290987.0,0.027,0.007,0.054,6.32,-26.36,0
2290992.0,0.0,0.002,0.008,12.7,-1.68,0
2290997.0,-0.028,0.019,-0.035,22.41,140.82,0
2291002.0,0.0,0.016,-0.009,61.98,-178.41,0
2291007.0,-0.012,-0.017,-0.037,-23.86,162.56,0
2291012.0,0.012,-0.008,-0.018,-19.46,-146.14,0
2291017.0,0.0,0.016,-0.009,61.98,-178.41,0
2291022.0,0.015,0.011,-0.006,35.71,-113.08,0
2291027.0,-0.002,0.016,-0.011,55.29,168.93,0
2291032.0,0.029,0.019,0.025,25.96,-49.32,0
2291037.0,0.027,-0.017,0.037,-20.86,-35.78,0
2291042.0,0.007,-0.013,0.011,-44.19,-35.16,0
2291047.0,0.01,0.011,0.039,15.75,-14.04,0
2291052.0,0.017,-0.039,-0.011,-62.47,-122.94,0
2291057.0,0.005,-0.036,0.011,-72.25,-25.51,0
2291062.0,0.015,-0.001,-0.023,-1.18,-147.57,0
2291067.0,-0.024,-0.025,0.058,-21.24,22.08,0
2291072.0,0.005,0.021,0.034,31.07,-8.3,0
2291077.0,0.015,-0.015,-0.004,-44.67,-104.69,0
2291082.0,-0.033,0.014,-0.009,21.88,104.52,0
2291087.0,-0.005,0.011,-0.025,23.88,169.84,0
2291092.0,0.005,-0.013,0.02,-31.15,-14.04,0
2291097.0,-0.012,0.016,-0.025,30.09,155.19,0
2291102.0,-0.024,0.031,-0.004,51.85,99.18,0
2291107.0,0.003,0.023,-0.001,82.69,-118.61,0
2291112.0,-0.009,-0.005,-0.006,-25.48,123.69,0
2291117.0,-0.012,-0.017,0.018,-39.18,33.51,0
2291122.0,0.003,0.033,0.008,75.45,-17.93,0
2291127.0,0.01,0.023,-0.004,65.74,-111.31,0
2291132.0,0.012,0.007,-0.001,28.32,-96.71,0
2291137.0,0.007,0.019,0.018,44.07,-22.73,0
2291142.0,-0.009,0.004,-0.037,6.27,165.96,0
2291147.0,0.01,-0.003,-0.033,-4.96,-163.22,0
2291152.0,-0.009,0.026,0.006,66.96,58.39,0
2291157.0,0.01,-0.017,-0.006,-56.13,-122.38,0
2291162.0,0.017,0.004,-0.011,11.8,-122.94,0
2291167.0,0.036,-0.015,-0.011,-21.55,-106.94,0
2291172.0,-0.014,0.002,0.027,3.42,27.36,0
2291177.0,-0.012,-0.001,-0.001,-2.71,96.98,0
2291182.0,0.019,-0.005,0.001,-15.4,-87.17,0
2291187.0,0.01,0.011,0.013,35.11,-37.21,0
2291192.0,0.034,0.019,-0.037,20.27,-137.89,0
2291197.0,0.007,0.009,-0.04,12.57,-169.42,0
2291202.0,0.012,-0.048,0.02,-64.09,-31.26,0
2291207.0,-0.014,0.004,0.018,10.57,38.56,0
2291212.0,-0.009,-0.008,0.037,-11.5,14.21,0
2291217.0,0.012,0.011,-0.004,41.73,-107.41,0
2291222.0,-0.014,-0.005,0.039,-7.3,19.79,0
2291227.0,0.0,0.026,0.011,67.77,-1.3,0
2291232.0,-0.009,0.011,0.015,32.46,31.36,0
2291237.0,0.0,-0.001,-0.004,-8.28,-176.42,0
2291242.0,-0.005,0.002,-0.013,7.39,161.26,0
2291247.0,0.005,0.007,0.008,34.7,-31.7,0
2291252.0,0.007,0.023,0.006,68.13,-52.25,0
2291257.0,-0.017,0.026,0.001,57.3,86.68,0
2291262.0,0.003,0.014,-0.011,50.64,-166.55,0
2291267.0,0.017,-0.022,0.018,-42.0,-43.81,0
2291272.0,0.034,-0.001,0.032,-0.69,-46.46,0
2291277.0,0.017,0.011,0.006,32.46,-71.32,0
2291282.0,0.012,-0.008,0.003,-31.44,-74.65,0
2291287.0,0.024,0.019,0.03,25.9,-39.16,0
2291292.0,0.01,0.007,0.037,9.85,-14.91,0
2291297.0,0.024,0.021,-0.011,38.31,-114.49,0
2291302.0,-0.033,0.007,-0.03,8.39,132.19,0
2291307.0,0.012,-0.008,0.023,-16.82,-28.48,0
2291312.0,-0.017,0.035,0.008,62.48,63.77,0
2291317.0,0.01,-0.001,-0.013,-1.93,-143.79,0
2291322.0,-0.012,-0.01,0.001,-40.73,85.33,0
2291327.0,0.015,-0.001,-0.011,-1.75,-127.02,0
2291332.0,-0.002,0.021,0.013,58.02,9.46,0
2291337.0,-0.017,0.033,-0.023,49.34,144.29,0
2291342.0,0.0,0.016,-0.001,84.86,-170.54,0
2291347.0,-0.019,0.007,-0.011,16.84,120.21,0
2291352.0,-0.005,0.031,-0.006,75.84,143.84,0
2291357.0,0.0,-0.015,0.013,-49.09,-1.06,0
2291362.0,-0.007,-0.022,0.003,-70.77,64.23,0
2291367.0,-0.005,-0.005,0.013,-21.31,19.38,0
2291372.0,-0.024,-0.008,-0.006,-17.53,104.71,0
2291377.0,-0.007,0.028,0.013,62.48,28.24,0
2291382.0,0.022,-0.02,-0.001,-42.08,-93.77,0
2291387.0,0.005,0.026,-0.009,68.84,-149.74,0
2291392.0,-0.005,0.016,0.006,65.66,38.36,0
2291397.0,0.007,0.038,-0.021,59.89,-160.18,0
2291402.0,0.007,-0.01,0.023,-23.16,-18.25,0
2291407.0,0.01,0.031,-0.021,53.27,-154.51,0
2291412.0,0.003,0.016,0.015,46.18,-9.75,0
2291417.0,0.029,0.031,0.042,31.06,-34.81,0
2291422.0,0.015,0.007,0.011,20.2,-54.19,0
2291427.0,0.039,0.004,0.001,6.26,-88.58,0
2291432.0,-0.012,-0.001,0.001,-2.72,85.33,0
2291437.0,0.029,0.016,-0.011,27.6,-110.81,0
2291442.0,0.003,0.004,0.013,17.77,-11.51,0
2291447.0,0.015,-0.003,0.018,-7.33,-39.5,0
2291452.0,-0.014,-0.027,0.039,-32.8,19.79,0
2291457.0,0.007,0.004,0.008,21.01,-42.36,0
2291462.0,0.003,-0.036,0.03,-50.74,-5.07,0
2291467.0,0.005,0.023,0.037,32.14,-7.77,0
2291472.0,-0.012,-0.029,-0.028,-44.17,157.1,0
2291477.0,0.017,0.016,0.023,29.87,-37.06,0
2291482.0,-0.028,-0.005,0.027,-7.72,46.23,0
2291487.0,-0.012,0.026,0.027,40.95,23.26,0
2291492.0,0.019,0.026,-0.013,47.55,-124.66,0
2291497.0,0.012,-0.003,-0.021,-7.03,-149.33,0
2291502.0,-0.012,0.016,-0.023,32.12,152.96,0
2291507.0,0.005,-0.032,-0.023,-53.4,-167.66,0
2291512.0,-0.002,0.031,-0.023,52.94,174.64,0
2291517.0,0.027,-0.02,0.03,-26.32,-41.83,0
2291522.0,0.007,0.026,0.011,63.44,-35.16,0
2291527.0,-0.002,-0.003,-0.011,-14.74,168.93,0
2291532.0,0.051,0.009,-0.006,10.05,-97.02,0
2291537.0,-0.012,0.004,0.042,5.58,15.73,0
2291542.0,-0.012,0.011,-0.023,23.86,152.96,0
2291547.0,0.003,-0.003,0.006,-25.04,-24.62,0
2291552.0,0.0,0.002,0.001,61.71,-14.02,0
2291557.0,0.027,0.007,0.03,9.44,-41.83,0
2291562.0,0.007,0.023,0.008,64.77,-42.36,0
2291567.0,0.031,-0.008,0.015,-12.5,-63.96,0
2291572.0,-0.002,-0.025,0.034,-35.35,3.58,0
2291577.0,-0.021,-0.025,-0.016,-42.72,126.56,0
2291582.0,0.01,0.011,0.025,23.09,-21.52,0
2291587.0,-0.017,0.004,-0.035,6.24,154.7,0
2291592.0,0.0,0.009,0.02,24.15,-0.68,0
2291597.0,-0.002,0.009,-0.028,17.94,175.56,0
2291602.0,-0.002,-0.036,-0.004,-83.13,150.64,0
2291607.0,-0.014,0.011,-0.004,37.95,105.17,0
2291612.0,-0.007,0.028,-0.021,52.36,161.36,0
2291617.0,-0.024,0.031,0.015,47.28,57.12,0
2291622.0,-0.021,-0.001,0.03,-0.88,35.67,0
2291627.0,0.029,-0.013,-0.018,-20.12,-122.13,0
2291632.0,-0.021,-0.013,-0.025,-20.71,139.98,0
2291637.0,0.012,0.038,-0.009,68.4,-125.22,0
2291642.0,0.022,0.023,-0.016,40.98,-125.95,0
2291647.0,0.003,-0.013,0.013,-43.52,-11.51,0
2291652.0,0.027,0.021,-0.009,36.92,-107.97,0
2291657.0,0.012,-0.015,-0.009,-44.96,-125.22,0
2291662.0,0.012,-0.003,-0.03,-5.18,-157.96,0
2291667.0,-0.021,-0.01,0.001,-25.42,87.42,0
2291672.0,0.003,0.009,0.044,11.55,-3.42,0
2291677.0,0.017,0.002,0.027,3.27,-31.91,0
2291682.0,0.003,0.014,0.011,51.81,-14.04,0
2291687.0,0.007,-0.017,0.02,-38.93,-20.26,0
2291692.0,0.022,0.023,0.006,46.06,-75.22,0
2291697.0,0.019,0.007,-0.001,18.81,-94.24,0
2291702.0,-0.002,0.023,-0.004,79.36,150.64,0
2291707.0,-0.005,0.021,0.025,39.67,10.35,0
2291712.0,-0.021,0.014,0.037,17.96,30.02,0
2291717.0,-0.005,-0.039,-0.021,-61.52,167.54,0
2291722.0,-0.005,0.004,0.03,8.02,8.71,0
2291727.0,-0.014,0.009,-0.013,24.85,133.5,0
2291732.0,0.012,-0.003,0.008,-11.38,-56.31,0
2291737.0,0.01,-0.003,-0.021,-7.38,-154.51,0
2291742.0,-0.017,-0.005,0.013,-14.3,51.95,0
2291747.0,-0.019,-0.01,0.03,-16.06,32.5,0
2291752.0,0.0,-0.015,-0.028,-28.25,-179.51,0
2291757.0,0.017,0.009,0.001,27.91,-86.77,0
2291762.0,0.0,0.023,-0.021,48.63,-179.33,0
2291767.0,0.01,0.023,-0.006,63.57,-122.38,0
2291772.0,-0.007,-0.01,0.018,-28.04,21.4,0
2291777.0,-0.007,-0.005,-0.016,-17.21,156.28,0
2291782.0,0.012,0.011,-0.013,32.18,-137.67,0
2291787.0,0.003,0.023,-0.016,55.59,-170.54,0
2291792.0,0.012,-0.001,-0.011,-1.95,-132.05,0
2291797.0,-0.017,0.009,-0.011,24.43,123.69,0
2291802.0,0.024,0.028,-0.052,26.27,-154.94,0
2291807.0,-0.009,0.023,-0.013,55.06,145.14,0
2291812.0,-0.007,0.014,0.042,18.1,9.46,0
2291817.0,0.034,0.021,-0.052,18.77,-146.86,0
2291822.0,-0.021,-0.008,-0.011,-17.89,117.33,0
2291827.0,0.0,0.019,-0.018,45.62,-179.25,0
2291832.0,0.0,-0.001,0.034,-0.93,-0.4,0
2291837.0,-0.002,-0.008,0.011,-35.75,11.56,0
2291842.0,-0.017,0.004,0.003,14.09,78.53,0
2291847.0,-0.009,-0.022,-0.001,-66.86,98.74,0
2291852.0,0.034,0.021,0.015,29.52,-65.59,0
2291857.0,-0.021,-0.001,0.008,-1.4,69.09,0
2291862.0,0.005,-0.01,-0.004,-58.05,-127.3,0
2291867.0,-0.019,-0.003,0.018,-6.5,46.87,0
2291872.0,-0.026,-0.029,0.006,-47.62,77.58,0
2291877.0,-0.005,0.007,-0.009,34.21,152.17,0
2291882.0,-0.014,0.019,0.03,29.49,25.44,0
2291887.0,0.029,0.026,0.03,31.86,-44.3,0
2291892.0,-0.005,-0.003,0.023,-7.33,11.43,0
2291897.0,0.003,0.023,0.015,56.38,-9.75,0
2291902.0,-0.017,0.007,-0.025,12.34,146.94,0
2291907.0,0.015,0.004,0.018,10.44,-39.5,0
2291912.0,0.024,0.007,-0.018,12.35,-126.96,0
2291917.0,-0.019,0.014,-0.021,26.28,137.43,0
2291922.0,0.012,-0.005,0.027,-10.14,-24.1,0
2291927.0,0.0,-0.022,-0.045,-26.4,-179.69,0
2291932.0,-0.002,0.016,-0.001,80.92,123.68,0
2291937.0,-0.007,0.004,0.018,12.53,21.4,0
2291942.0,0.0,0.007,0.013,27.12,-1.06,0
2291947.0,-0.012,-0.005,-0.025,-10.83,155.19,0
2291952.0,0.003,0.004,0.015,15.22,-9.75,0
2291957.0,-0.007,-0.001,0.006,-3.55,50.39,0
2291962.0,-0.007,-0.013,0.008,-49.5,40.46,0
2291967.0,0.005,-0.01,0.03,-18.6,-9.61,0
2291972.0,0.022,0.002,-0.011,4.3,-116.82,0
2291977.0,-0.028,0.002,0.023,2.89,51.69,0
2291982.0,0.005,-0.005,-0.004,-40.23,-127.3,0
2291987.0,0.01,0.004,0.001,23.21,-84.42,0
2291992.0,-0.04,0.002,0.001,2.6,88.64,0
2291997.0,0.01,-0.044,0.001,-77.27,-84.42,0
2292002.0,-0.024,0.007,-0.009,14.72,109.98,0
2292007.0,0.027,0.016,-0.016,27.65,-120.74,0
2292012.0,0.01,-0.003,0.013,-10.31,-37.21,0
2292017.0,-0.007,-0.02,-0.016,-48.8,156.28,0
2292022.0,0.005,-0.01,0.037,-15.24,-7.77,0
2292027.0,0.036,-0.013,0.015,-17.7,-67.03,0
2292032.0,0.003,-0.01,0.013,-37.53,-11.51,0
2292037.0,-0.012,-0.001,0.02,-1.37,30.26,0
2292042.0,0.003,0.016,0.006,68.68,-24.62,0
2292047.0,-0.012,0.021,-0.023,39.12,152.96,0
2292052.0,0.003,0.019,0.018,46.07,-8.45,0
2292057.0,0.022,-0.01,-0.011,-22.55,-116.82,0
2292062.0,0.0,-0.027,0.03,-42.17,-0.46,0
2292067.0,0.024,-0.003,-0.025,-4.81,-136.38,0
2292072.0,0.0,-0.01,0.003,-71.66,-4.08,0
2292077.0,0.022,0.023,-0.028,33.52,-141.89,0
2292082.0,0.003,0.004,0.02,11.78,-7.46,0
2292087.0,-0.002,0.009,0.032,15.67,3.84,0
2292092.0,-0.007,0.007,0.001,43.38,82.14,0
2292097.0,0.003,-0.003,0.034,-4.88,-4.37,0
2292102.0,-0.017,-0.001,-0.03,-0.93,151.29,0
2292107.0,-0.017,-0.017,0.013,-39.54,51.95,0
2292112.0,-0.005,0.019,0.023,39.0,11.43,0
2292117.0,-0.028,0.007,0.008,12.6,74.05,0
2292122.0,0.027,0.028,0.011,44.58,-68.38,0
2292127.0,0.012,0.004,0.023,9.38,-28.48,0
2292132.0,0.0,0.004,0.011,21.87,-1.3,0
2292137.0,-0.017,0.031,0.008,58.93,63.77,0
2292142.0,-0.009,0.014,0.037,19.95,14.21,0
2292147.0,-0.007,-0.025,-0.009,-65.69,141.14,0
2292152.0,-0.005,0.011,-0.004,62.48,130.1,0
2292157.0,0.031,-0.015,0.013,-23.75,-67.6,0
2292162.0,-0.002,-0.001,-0.006,-4.85,160.91,0
2292167.0,0.012,0.026,-0.018,49.63,-146.14,0
2292172.0,0.034,-0.029,-0.018,-37.37,-118.32,0
2292177.0,0.005,0.033,0.023,55.02,-12.59,0
2292182.0,0.003,0.026,-0.011,66.29,-166.55,0
2292187.0,-0.005,-0.017,-0.025,-33.89,169.84,0
2292192.0,-0.007,0.033,0.015,62.96,24.38,0
2292197.0,0.015,-0.025,-0.006,-57.06,-113.08,0
2292202.0,-0.014,0.014,-0.004,43.33,105.17,0
2292207.0,-0.017,-0.017,0.032,-25.64,27.24,0
2292212.0,0.034,-0.003,-0.011,-4.75,-108.07,0
2292217.0,0.019,-0.005,0.039,-6.96,-26.28,0
2292222.0,0.015,0.026,0.039,31.6,-20.4,0
2292227.0,0.0,0.031,0.015,63.37,-0.89,0
2292232.0,0.019,0.019,0.025,30.51,-37.91,0
2292237.0,0.0,0.014,0.032,23.28,-0.43,0
2292242.0,0.0,0.028,0.02,54.47,-0.68,0
2292247.0,0.034,0.023,0.02,30.76,-59.21,0
2292252.0,-0.031,-0.029,-0.028,-35.19,131.96,0
2292257.0,0.01,0.009,0.051,9.81,-10.85,0
2292262.0,-0.019,-0.034,-0.011,-57.29,120.21,0
2292267.0,0.0,-0.039,0.046,-39.92,-0.3,0
2292272.0,0.007,0.016,0.015,43.58,-25.84,0
2292277.0,0.012,0.014,0.006,45.65,-64.8,0
2292282.0,-0.014,-0.015,0.039,-19.68,19.79,0
2292287.0,0.017,-0.003,-0.016,-7.25,-132.91,0
2292292.0,-0.007,-0.041,0.003,-79.42,64.23,0
2292297.0,0.01,-0.001,0.02,-1.43,-26.02,0
2292302.0,0.015,0.016,0.018,35.21,-39.5,0
2292307.0,0.027,0.033,-0.023,43.17,-130.86,0
2292312.0,0.0,0.019,-0.025,36.23,-179.46,0
2292317.0,0.019,0.002,-0.013,4.45,-124.66,0
2292322.0,-0.026,0.009,-0.028,13.31,136.78,0
2292327.0,-0.014,0.016,0.046,18.45,16.92,0
2292332.0,0.012,0.007,0.013,20.43,-43.36,0
2292337.0,0.024,0.023,0.008,42.5,-71.39,0
2292342.0,-0.033,0.04,-0.023,44.79,124.63,0
2292347.0,-0.014,0.004,0.023,9.04,32.11,0
2292352.0,-0.005,0.031,0.001,81.35,78.1,0
2292357.0,0.003,-0.017,0.027,-32.27,-5.51,0
2292362.0,-0.009,0.023,-0.016,51.87,149.42,0
2292367.0,-0.014,-0.029,0.013,-56.82,47.53,0
2292372.0,-0.005,0.019,-0.011,57.35,157.56,0
2292377.0,-0.005,-0.005,0.011,-24.98,23.35,0
2292382.0,0.005,0.019,0.011,57.88,-25.51,0
2292387.0,0.017,-0.01,0.051,-10.63,-18.35,0
2292392.0,-0.012,-0.013,0.015,-32.99,37.44,0
2292397.0,0.005,0.002,0.018,5.69,-15.84,0
2292402.0,0.003,-0.01,-0.004,-65.36,-145.49,0
2292407.0,0.003,0.004,-0.033,7.38,-175.38,0
2292412.0,-0.002,-0.02,0.034,-29.71,3.58,0
2292417.0,0.005,0.009,0.042,12.13,-6.88,0
2292422.0,-0.002,-0.01,0.008,-50.28,14.83,0
2292427.0,0.003,0.002,-0.016,6.54,-170.54,0
2292432.0,-0.007,0.007,-0.011,26.97,147.77,0
2292437.0,0.005,0.028,0.023,50.7,-12.59,0
2292442.0,-0.012,-0.01,-0.013,-29.64,138.81,0
2292447.0,0.022,0.016,0.025,26.09,-41.18,0
2292452.0,-0.005,-0.015,0.025,-30.52,10.35,0
2292457.0,-0.007,0.014,0.011,47.58,33.39,0
2292462.0,-0.007,-0.013,-0.028,-23.64,165.96,0
2292467.0,0.0,-0.001,-0.016,-2.02,-179.13,0
2292472.0,0.012,-0.003,0.013,-9.43,-43.36,0
2292477.0,0.005,-0.017,-0.016,-46.24,-162.35,0
2292482.0,0.017,-0.001,0.008,-1.7,-64.41,0
2292487.0,-0.002,0.014,-0.033,22.93,176.21,0
2292492.0,-0.033,0.004,0.025,5.81,53.2,0
2292497.0,0.017,0.007,0.003,20.92,-78.84,0
2292502.0,-0.017,0.002,0.032,2.91,27.24,0
2292507.0,0.007,0.004,0.03,7.87,-14.04,0
2292512.0,-0.024,-0.029,-0.049,-28.16,154.33,0
2292517.0,0.012,0.002,0.02,4.46,-31.26,0
2292522.0,-0.002,0.016,0.032,26.74,3.84,0
2292527.0,0.031,0.023,-0.011,35.12,-109.35,0
2292532.0,-0.021,0.007,-0.04,8.36,151.8,0
2292537.0,-0.017,-0.025,-0.001,-55.91,94.97,0
2292542.0,0.0,0.047,0.011,77.45,-1.3,0
2292547.0,-0.014,0.002,0.006,6.86,67.86,0
2292552.0,0.029,-0.003,-0.013,-5.28,-114.83,0
2292557.0,0.015,0.011,0.034,16.95,-22.96,0
2292562.0,-0.014,-0.005,-0.011,-16.62,127.94,0
2292567.0,-0.026,-0.013,-0.018,-21.5,124.88,0
2292572.0,-0.002,-0.008,0.006,-51.59,20.55,0
2292577.0,0.01,0.023,-0.004,65.74,-111.31,0
2292582.0,0.01,-0.01,-0.006,-41.09,-122.38,0
2292587.0,0.0,0.031,0.051,30.82,-0.27,0
2292592.0,0.015,-0.008,0.001,-27.87,-86.25,0
2292597.0,0.0,-0.015,-0.025,-30.46,-179.46,0
2292602.0,0.007,-0.01,0.003,-51.22,-65.69,0
2292607.0,0.017,-0.001,0.003,-1.85,-78.84,0
2292612.0,-0.002,0.023,0.025,43.09,4.95,0
2292617.0,0.0,-0.001,-0.001,-20.99,-170.54,0
2292622.0,-0.014,0.002,-0.023,3.89,148.43,0
2292627.0,0.0,0.021,0.034,31.33,-0.4,0
2292632.0,0.007,0.014,-0.03,23.96,-166.18,0
2292637.0,0.003,0.016,-0.092,9.94,-178.37,0
2292642.0,-0.005,0.004,0.054,4.49,4.85,0
2292647.0,0.012,0.019,0.006,54.03,-64.8,0
2292652.0,0.003,0.014,-0.016,40.76,-170.54,0
2292657.0,0.022,0.014,0.032,19.6,-34.18,0
2292662.0,-0.007,0.009,0.023,20.95,17.15,0
2292667.0,0.024,0.023,-0.04,26.69,-148.68,0
2292672.0,0.003,0.009,0.032,15.65,-4.69,0
2292677.0,0.0,-0.01,0.018,-29.77,-0.77,0
2292682.0,0.022,0.019,-0.016,34.64,-125.95,0
2292687.0,0.015,0.009,-0.001,31.57,-95.62,0
2292692.0,0.029,0.011,-0.001,21.48,-92.84,0
2292697.0,0.017,0.014,-0.018,29.01,-136.95,0
2292702.0,0.0,-0.005,0.049,-6.25,-0.28,0
2292707.0,0.01,0.009,-0.004,40.56,-111.31,0
2292712.0,-0.005,-0.032,-0.013,-65.92,161.26,0
2292717.0,-0.012,-0.003,-0.018,-7.77,147.19,0
2292722.0,0.019,-0.001,-0.047,-0.63,-157.55,0
2292727.0,-0.007,0.023,0.02,47.7,19.05,0
2292732.0,-0.007,-0.01,0.032,-17.16,12.21,0
2292737.0,-0.009,-0.025,0.003,-67.96,70.25,0
2292742.0,-0.019,-0.005,-0.025,-9.59,143.3,0
2292747.0,0.012,-0.01,0.001,-39.61,-85.51,0
2292752.0,-0.012,-0.003,-0.021,-7.1,150.33,0
2292757.0,0.015,0.021,0.013,47.1,-48.48,0
2292762.0,-0.017,0.009,-0.018,20.15,137.76,0
2292767.0,-0.014,-0.005,0.008,-18.16,60.05,0
2292772.0,-0.024,0.011,-0.04,13.85,149.19,0
2292777.0,0.01,0.002,0.03,3.36,-18.3,0
2292782.0,0.029,0.007,0.001,12.87,-88.11,0
2292787.0,0.01,0.019,-0.011,51.57,-138.29,0
2292792.0,-0.005,0.004,0.044,5.46,5.9,0
2292797.0,0.034,0.007,-0.006,10.92,-100.45,0
2292802.0,0.022,0.019,0.001,40.45,-87.48,0
2292807.0,-0.026,0.023,-0.04,26.19,146.71,0
2292812.0,0.031,0.019,0.003,30.52,-83.9,0
2292817.0,0.003,0.019,-0.001,80.84,-118.61,0
2292822.0,-0.009,0.009,0.018,24.24,27.79,0
2292827.0,0.003,-0.022,-0.025,-40.91,-174.08,0
2292832.0,0.007,0.023,0.011,61.14,-35.16,0
2292837.0,0.015,0.019,0.008,48.04,-60.86,0
2292842.0,-0.002,0.026,0.001,84.77,66.02,0
2292847.0,0.003,0.009,0.023,21.7,-6.67,0
2292852.0,0.027,0.009,0.03,12.75,-41.83,0
2292857.0,-0.009,0.004,-0.011,16.33,139.71,0
2292862.0,-0.019,-0.022,-0.033,-30.42,149.85,0
2292867.0,0.0,0.004,0.006,36.33,-2.39,0
2292872.0,0.017,-0.003,-0.013,-7.77,-128.26,0
2292877.0,-0.002,0.002,0.037,2.85,3.34,0
2292882.0,-0.036,-0.001,0.02,-0.78,60.59,0
2292887.0,0.015,-0.001,0.006,-2.04,-68.52,0
2292892.0,-0.005,0.019,-0.028,33.45,170.7,0
2292897.0,-0.007,0.002,-0.011,8.03,147.77,0
2292902.0,-0.019,0.019,-0.006,43.04,108.22,0
2292907.0,0.0,0.016,-0.016,45.71,-179.13,0
2292912.0,0.007,-0.027,-0.071,-20.68,-174.02,0
2292917.0,-0.005,0.007,-0.001,54.24,107.52,0
2292922.0,0.0,0.019,-0.035,28.01,-179.61,0
2292927.0,0.007,-0.01,-0.057,-10.08,-172.52,0
2292932.0,-0.024,-0.008,0.051,-7.81,24.83,0
2292937.0,0.017,0.004,0.058,3.98,-16.22,0
2292942.0,-0.017,0.007,-0.011,18.45,123.69,0
2292947.0,-0.009,0.026,-0.001,69.87,98.74,0
2292952.0,0.005,-0.025,-0.001,-77.95,-105.94,0
2292957.0,0.003,0.007,0.023,16.3,-6.67,0
2292962.0,0.027,-0.02,-0.009,-35.21,-107.97,0
2292967.0,-0.019,0.014,-0.006,34.74,108.22,0
2292972.0,-0.017,0.016,-0.023,29.79,144.29,0
2292977.0,0.039,-0.015,-0.006,-20.92,-99.17,0
2292982.0,-0.024,-0.015,0.015,-27.87,57.12,0
2292987.0,0.031,-0.017,0.046,-17.17,-34.03,0
2292992.0,0.005,-0.029,0.044,-33.45,-6.51,0
2292997.0,-0.012,-0.017,-0.001,-55.69,96.98,0
2293002.0,0.019,0.019,0.037,24.05,-27.74,0
2293007.0,-0.019,0.011,-0.018,23.5,133.89,0
2293012.0,-0.002,0.007,-0.03,12.35,175.91,0
2293017.0,-0.04,0.016,0.015,20.53,69.26,0
2293022.0,0.029,-0.022,-0.047,-21.84,-148.31,0
2293027.0,-0.026,0.002,-0.021,3.16,128.27,0
2293032.0,0.017,0.007,-0.045,7.91,-159.11,0
2293037.0,0.012,0.019,0.02,38.32,-31.26,0
2293042.0,0.031,-0.032,0.03,-36.26,-46.57,0
2293047.0,-0.031,0.019,0.013,29.05,67.29,0
2293052.0,0.055,-0.027,-0.009,-25.66,-98.86,0
2293057.0,-0.028,-0.041,-0.001,-55.34,92.89,0
2293062.0,0.007,0.004,-0.085,2.83,-175.02,0
2293067.0,-0.021,-0.027,-0.03,-36.06,144.76,0
2293072.0,-0.009,0.023,0.003,67.01,70.25,0
2293077.0,0.003,0.009,0.013,34.35,-11.51,0
2293082.0,-0.021,0.016,-0.057,15.02,159.34,0
2293087.0,0.007,0.014,-0.018,35.09,-157.81,0
2293092.0,0.01,0.026,0.051,26.3,-10.85,0
2293097.0,-0.005,0.004,0.001,42.3,78.1,0
2293102.0,0.022,0.021,-0.006,42.81,-105.94,0
2293107.0,-0.033,0.021,-0.025,26.63,127.33,0
2293112.0,0.0,0.023,-0.033,35.68,-179.58,0
2293117.0,-0.019,-0.025,-0.009,-49.69,114.5,0
2293122.0,-0.019,0.031,0.037,36.41,27.16,0
2293127.0,0.041,0.011,0.018,14.35,-66.6,0
2293132.0,-0.014,-0.008,-0.001,-28.6,95.81,0
2293137.0,-0.019,-0.025,0.015,-45.19,50.99,0
2293142.0,0.005,0.002,0.013,7.54,-21.25,0
2293147.0,-0.012,-0.015,-0.006,-48.33,117.95,0
2293152.0,-0.014,-0.003,-0.03,-5.07,154.91,0
2293157.0,0.034,0.011,0.018,16.66,-62.31,0
2293162.0,-0.012,0.026,0.008,61.02,55.24,0
2293167.0,-0.017,0.004,-0.001,14.31,94.97,0
2293172.0,-0.009,-0.005,0.013,-18.53,35.84,0
2293177.0,0.0,-0.013,0.003,-74.99,-4.08,0
2293182.0,-0.002,0.038,0.006,80.77,20.55,0
2293187.0,0.015,-0.001,0.015,-1.51,-43.62,0
2293192.0,-0.014,-0.022,-0.025,-37.28,150.9,0
2293197.0,-0.007,-0.01,0.003,-52.74,64.23,0
2293202.0,-0.007,-0.013,0.003,-58.39,64.23,0
2293207.0,-0.009,0.019,0.03,30.86,17.46,0
2293212.0,-0.026,-0.015,0.025,-22.48,46.34,0
2293217.0,-0.007,0.007,0.006,36.31,50.39,0
2293222.0,-0.007,0.04,0.013,69.92,28.24,0
2293227.0,-0.009,0.002,0.025,3.95,20.56,0
2293232.0,0.019,-0.013,0.023,-22.87,-40.75,0
2293237.0,0.031,0.011,-0.011,18.95,-109.35,0
2293242.0,-0.002,-0.017,-0.052,-18.5,177.61,0
2293247.0,-0.009,0.007,0.025,13.99,20.56,0
2293252.0,-0.009,0.016,0.011,49.01,41.55,0
2293257.0,0.01,-0.001,0.02,-1.43,-26.02,0
2293262.0,0.007,0.007,0.03,12.21,-14.04,0
2293267.0,0.015,0.014,-0.006,41.01,-113.08,0
2293272.0,-0.014,-0.02,-0.001,-54.23,95.81,0
2293277.0,-0.005,0.019,-0.021,41.41,167.54,0
2293282.0,-0.017,0.014,0.015,31.5,47.15,0
2293287.0,0.007,-0.008,0.025,-16.59,-16.6,0
2293292.0,0.003,0.028,-0.013,64.13,-168.89,0
2293297.0,-0.007,0.021,0.011,58.99,33.39,0
2293302.0,0.012,-0.027,0.018,-51.34,-34.57,0
2293307.0,0.029,0.021,0.037,24.11,-38.16,0
2293312.0,0.003,-0.029,-0.018,-57.88,-171.76,0
2293317.0,-0.005,-0.008,0.034,-12.55,7.52,0
2293322.0,-0.019,-0.017,-0.001,-42.4,94.34,0
2293327.0,0.0,0.019,-0.009,65.13,-178.41,0
2293332.0,0.0,-0.008,0.008,-43.55,-1.68,0
2293337.0,-0.002,0.016,0.011,56.43,11.56,0
2293342.0,0.0,0.033,-0.035,43.32,-179.61,0
2293347.0,-0.002,-0.001,-0.023,-1.39,174.64,0
2293352.0,0.019,-0.015,0.008,-35.36,-67.23,0
2293357.0,0.007,-0.008,-0.011,-30.24,-146.02,0
2293362.0,-0.009,0.007,0.008,28.13,48.92,0
2293367.0,0.019,-0.001,0.001,-1.65,-87.17,0
2293372.0,0.003,0.031,0.037,39.59,-4.09,0
2293377.0,-0.009,-0.003,0.001,-17.46,84.14,0
2293382.0,-0.026,-0.003,-0.023,-4.85,131.37,0
2293387.0,0.012,0.019,-0.025,33.44,-154.31,0
2293392.0,0.0,-0.001,-0.016,-2.02,-179.13,0
2293397.0,-0.002,-0.013,-0.004,-70.67,150.64,0
2293402.0,0.003,-0.027,0.006,-76.77,-24.62,0
2293407.0,-0.009,0.023,-0.016,51.87,149.42,0
2293412.0,0.005,-0.003,-0.013,-11.65,-159.44,0
2293417.0,-0.014,0.023,-0.011,52.55,127.94,0
2293422.0,-0.024,-0.003,0.02,-5.43,49.68,0
2293427.0,0.007,-0.027,-0.03,-40.88,-166.18,0
2293432.0,-0.024,0.033,0.02,46.68,49.68,0
2293437.0,0.0,-0.01,0.018,-29.77,-0.77,0
2293442.0,0.0,-0.001,0.042,-0.77,-0.33,0
2293447.0,-0.021,-0.003,0.011,-7.08,63.69,0
2293452.0,0.019,-0.003,0.049,-3.22,-21.66,0
2293457.0,-0.009,-0.001,0.042,-0.75,12.63,0
2293462.0,0.007,-0.005,-0.006,-28.9,-129.99,0
2293467.0,-0.005,0.023,0.001,78.76,78.1,0
2293472.0,-0.007,-0.01,0.025,-21.41,15.58,0
2293477.0,0.027,0.002,-0.025,2.86,-133.68,0
2293482.0,-0.002,0.028,-0.03,42.97,175.91,0
2293487.0,0.01,-0.02,0.013,-50.53,-37.21,0
2293492.0,0.007,0.002,-0.013,6.83,-151.03,0
2293497.0,0.01,0.002,-0.021,4.6,-154.51,0
2293502.0,0.007,-0.003,-0.023,-6.97,-162.1,0
2293507.0,-0.005,-0.005,0.023,-13.11,11.43,0
2293512.0,0.0,-0.005,-0.001,-74.77,-170.54,0
2293517.0,0.019,0.011,0.011,27.34,-61.49,0
2293522.0,-0.002,0.014,0.013,46.49,9.46,0
2293527.0,-0.012,0.004,0.023,9.46,27.53,0
2293532.0,0.022,0.014,0.02,24.97,-47.29,0
2293537.0,-0.019,0.011,0.027,18.97,34.72,0
2293542.0,0.017,-0.027,-0.009,-54.68,-116.88,0
2293547.0,-0.012,0.004,0.011,15.02,48.08,0
2293552.0,-0.014,-0.005,-0.021,-12.09,145.55,0
2293557.0,-0.026,0.007,0.023,10.88,49.23,0
2293562.0,0.003,-0.005,0.023,-13.28,-6.67,0
2293567.0,0.005,-0.001,-0.037,-0.85,-172.33,0
2293572.0,0.003,0.026,-0.001,83.36,-118.61,0
2293577.0,-0.005,0.002,-0.001,21.05,107.52,0
2293582.0,0.017,0.002,-0.011,5.18,-122.94,0
2293587.0,0.0,0.004,0.008,27.45,-1.68,0
2293592.0,0.012,-0.013,-0.006,-42.43,-117.01,0
2293597.0,0.015,0.016,0.011,41.98,-54.19,0
2293602.0,-0.019,-0.001,-0.023,-1.08,140.55,0
2293607.0,-0.026,-0.003,-0.001,-6.45,93.15,0
2293612.0,0.015,-0.025,0.006,-57.36,-68.52,0
2293617.0,-0.031,-0.017,-0.021,-25.01,123.69,0
2293622.0,-0.014,-0.001,0.054,-0.58,14.76,0
2293627.0,-0.036,-0.015,0.039,-15.71,42.26,0
2293632.0,0.003,0.011,-0.021,28.8,-172.71,0
2293637.0,-0.005,-0.001,-0.001,-6.68,107.52,0
2293642.0,0.015,-0.015,0.013,-37.42,-48.48,0
2293647.0,-0.014,0.002,-0.004,7.15,105.17,0
2293652.0,0.015,0.033,0.001,66.06,-86.25,0
2293657.0,-0.012,-0.005,-0.006,-21.93,117.95,0
2293662.0,-0.009,-0.01,-0.021,-24.15,155.61,0
2293667.0,-0.043,-0.005,0.039,-5.26,47.5,0
2293672.0,0.015,0.007,-0.004,23.69,-104.69,0
2293677.0,0.017,0.009,0.03,14.77,-29.79,0
2293682.0,-0.005,-0.02,0.02,-43.71,12.74,0
2293687.0,0.005,0.011,0.015,35.29,-18.16,0
2293692.0,0.003,0.023,0.02,49.06,-7.46,0
2293697.0,0.024,0.021,0.032,27.58,-37.01,0
2293702.0,0.005,0.031,0.003,78.82,-56.31,0
2293707.0,0.0,0.023,0.003,81.82,-4.08,0
2293712.0,-0.005,-0.001,0.02,-1.55,12.74,0
2293717.0,-0.005,0.019,0.011,58.32,23.35,0
2293722.0,-0.002,-0.013,-0.025,-26.19,175.15,0
2293727.0,0.012,-0.01,0.013,-29.68,-43.36,0
2293732.0,-0.021,0.016,0.039,19.93,28.49,0
2293737.0,-0.019,-0.02,-0.025,-31.91,143.3,0
2293742.0,-0.031,-0.005,0.02,-8.25,56.93,0
2293747.0,0.019,-0.017,0.023,-30.24,-40.75,0
2293752.0,-0.026,-0.001,0.032,-0.77,39.13,0
2293757.0,0.005,-0.001,0.001,-6.23,-79.21,0
2293762.0,-0.002,0.004,-0.001,58.52,123.68,0
2293767.0,-0.021,-0.01,0.039,-12.78,28.49,0
2293772.0,0.003,0.026,0.008,71.64,-17.93,0
2293777.0,0.003,-0.005,-0.016,-18.46,-170.54,0
2293782.0,-0.045,-0.003,0.006,-3.7,82.76,0
2293787.0,-0.005,0.021,-0.001,77.2,107.52,0
2293792.0,-0.026,-0.027,-0.03,-33.99,139.14,0
2293797.0,0.003,-0.005,0.011,-26.21,-14.04,0
2293802.0,0.003,-0.015,-0.013,-47.53,-168.89,0
2293807.0,-0.024,0.019,-0.013,34.33,119.49,0
2293812.0,-0.017,-0.001,-0.011,-1.61,123.69,0
2293817.0,0.005,-0.001,-0.016,-1.93,-162.35,0
2293822.0,-0.007,-0.005,0.056,-5.41,7.06,0
2293827.0,-0.024,-0.013,0.02,-21.95,49.68,0
2293832.0,0.027,0.014,0.013,25.04,-64.06,0
2293837.0,-0.009,0.007,-0.035,10.38,165.04,0
2293842.0,0.0,-0.022,0.03,-36.67,-0.46,0
2293847.0,-0.009,-0.01,0.054,-10.55,9.88,0
2293852.0,-0.019,0.043,-0.004,65.6,101.45,0
2293857.0,0.022,0.009,-0.023,15.89,-136.53,0
2293862.0,0.003,0.007,-0.03,12.34,-175.01,0
2293867.0,-0.007,0.011,0.003,55.96,64.23,0
2293872.0,0.017,-0.032,0.039,-36.52,-23.41,0
2293877.0,-0.045,0.016,0.025,17.42,61.18,0
2293882.0,0.015,-0.005,-0.052,-5.68,-164.23,0
2293887.0,-0.024,0.019,-0.059,16.32,158.08,0
2293892.0,0.003,0.004,-0.021,11.52,-172.71,0
2293897.0,0.005,-0.001,0.046,-0.68,-6.18,0
2293902.0,-0.005,-0.003,0.037,-4.54,7.03,0
2293907.0,-0.021,0.019,0.013,36.73,58.75,0
2293912.0,0.003,-0.005,-0.049,-6.18,-176.94,0
2293917.0,0.031,-0.029,0.025,-36.18,-51.55,0
2293922.0,-0.014,0.007,0.034,10.08,22.28,0
2293927.0,0.019,-0.013,0.015,-26.88,-51.69,0
2293932.0,-0.009,0.002,0.03,3.38,17.46,0
2293937.0,-0.009,0.009,-0.021,21.75,155.61,0
2293942.0,-0.005,-0.017,-0.09,-10.88,177.11,0
2293947.0,-0.014,0.019,0.003,52.02,76.65,0
2293952.0,0.012,0.007,0.027,12.49,-24.1,0
2293957.0,0.017,-0.001,0.044,-0.68,-21.1,0
2293962.0,0.003,0.028,-0.023,50.61,-173.46,0
2293967.0,0.027,-0.005,-0.013,-10.18,-116.77,0
2293972.0,0.012,-0.003,-0.018,-7.67,-146.14,0
2293977.0,0.007,-0.025,0.037,-33.08,-11.38,0
2293982.0,0.012,-0.01,0.013,-29.68,-43.36,0
2293987.0,0.015,0.033,-0.021,52.55,-144.65,0
2293992.0,0.007,-0.003,0.013,-11.2,-29.86,0
2293997.0,-0.043,0.014,0.011,17.37,76.19,0
2294002.0,0.003,0.011,-0.018,31.83,-171.76,0
2294007.0,-0.017,0.011,-0.006,32.88,110.65,0
2294012.0,0.039,0.009,0.02,11.72,-62.45,0
2294017.0,0.003,0.009,-0.006,53.15,-157.07,0
2294022.0,0.029,-0.005,0.056,-4.85,-27.34,0
2294027.0,0.024,-0.025,0.003,-45.1,-82.11,0
2294032.0,0.01,0.023,0.018,49.1,-28.99,0
2294037.0,0.017,0.021,-0.009,47.76,-116.88,0
2294042.0,-0.009,-0.008,0.013,-25.89,35.84,0
2294047.0,-0.009,0.019,0.058,17.45,9.08,0
2294052.0,0.003,0.014,0.032,23.21,-4.69,0
2294057.0,-0.017,-0.01,-0.047,-11.52,160.61,0
2294062.0,-0.028,-0.02,-0.04,-21.95,144.36,0
2294067.0,-0.045,-0.008,0.023,-8.71,63.56,0
2294072.0,0.031,0.014,0.008,23.08,-75.45,0
2294077.0,-0.007,0.021,0.02,44.61,19.05,0
2294082.0,-0.002,0.023,-0.004,79.36,150.64,0
2294087.0,0.019,-0.01,-0.023,-18.63,-139.84,0
2294092.0,-0.04,-0.008,0.018,-9.94,66.35,0
2294097.0,-0.005,0.043,0.034,50.73,7.52,0
2294102.0,-0.005,-0.003,0.073,-2.32,3.58,0
2294107.0,-0.007,0.007,-0.016,21.0,156.28,0
2294112.0,-0.012,-0.034,-0.047,-35.16,165.96,0
2294117.0,-0.005,0.002,-0.054,1.94,175.19,0
2294122.0,0.012,-0.017,0.003,-53.83,-74.65,0
2294127.0,-0.031,0.002,0.03,2.45,46.13,0
2294132.0,0.036,-0.017,0.046,-16.4,-37.9,0
2294137.0,-0.045,-0.02,-0.042,-17.68,132.96,0
2294142.0,0.007,-0.001,-0.045,-0.71,-170.54,0
2294147.0,0.007,0.014,0.063,12.24,-6.7,0
2294152.0,0.005,-0.039,0.008,-76.17,-31.7,0
2294157.0,0.012,0.009,0.008,31.57,-56.31,0
2294162.0,0.015,0.019,-0.001,51.72,-95.62,0
2294167.0,-0.026,-0.01,0.018,-17.81,55.83,0
2294172.0,0.022,0.019,-0.028,27.78,-141.89,0
2294177.0,-0.033,-0.02,0.025,-25.37,53.2,0
2294182.0,0.003,0.031,0.02,56.43,-7.46,0
2294187.0,-0.017,0.004,-0.023,8.5,144.29,0
2294192.0,0.007,0.011,-0.045,14.19,-170.54,0
2294197.0,0.007,0.016,-0.023,33.85,-162.1,0
2294202.0,-0.012,0.023,0.018,47.74,33.51,0
2294207.0,0.024,-0.025,0.018,-39.26,-53.77,0
2294212.0,0.024,0.028,-0.021,41.57,-130.41,0
2294217.0,-0.014,0.009,-0.042,11.47,161.47,0
2294222.0,0.022,-0.001,-0.025,-0.96,-139.35,0
2294227.0,-0.009,-0.003,0.037,-4.44,14.21,0
2294232.0,0.031,0.007,0.032,8.4,-44.35,0
2294237.0,0.0,0.016,-0.013,50.39,-178.98,0
2294242.0,-0.024,0.019,-0.04,21.89,149.19,0
2294247.0,0.017,0.007,-0.054,6.66,-162.56,0
2294252.0,-0.028,-0.02,0.027,-26.55,46.23,0
2294257.0,-0.007,-0.01,-0.033,-16.93,167.96,0
2294262.0,0.005,-0.01,-0.018,-28.23,-164.55,0
2294267.0,0.022,0.028,-0.016,46.31,-125.95,0
2294272.0,-0.031,0.007,-0.006,11.87,101.39,0
2294277.0,0.051,0.023,0.054,17.61,-43.29,0
2294282.0,-0.007,0.009,0.032,15.36,12.21,0
2294287.0,0.031,-0.001,-0.009,-0.98,-105.36,0
2294292.0,-0.021,-0.003,0.006,-7.62,74.91,0
2294297.0,0.027,-0.025,0.054,-22.26,-26.36,0
2294302.0,0.0,0.038,0.104,19.97,-0.13,0
2294307.0,-0.012,0.033,0.049,33.27,13.51,0
2294312.0,0.024,0.035,0.011,53.27,-66.46,0
2294317.0,-0.031,0.014,-0.001,24.06,92.66,0
2294322.0,-0.005,0.004,-0.057,4.27,175.4,0
2294327.0,-0.012,0.014,-0.021,30.23,150.33,0
2294332.0,0.019,0.011,0.034,16.09,-29.36,0
2294337.0,0.003,-0.041,0.056,-36.34,-2.69,0
2294342.0,0.007,-0.02,-0.04,-25.99,-169.42,0
2294347.0,0.029,0.021,-0.009,34.78,-106.57,0
2294352.0,-0.002,0.019,-0.035,27.97,176.47,0
2294357.0,0.015,0.002,-0.004,6.93,-104.69,0
2294362.0,-0.009,-0.029,-0.001,-72.12,98.74,0
2294367.0,0.003,0.028,0.027,45.77,-5.51,0
2294372.0,-0.007,0.011,-0.013,37.09,152.62,0
2294377.0,-0.026,-0.008,-0.061,-6.63,156.94,0
2294382.0,0.005,-0.008,0.006,-45.39,-41.18,0
2294387.0,0.012,-0.034,0.02,-55.38,-31.26,0
2294392.0,0.024,-0.001,0.011,-1.21,-66.46,0
2294397.0,-0.033,0.016,-0.021,22.49,121.74,0
2294402.0,-0.002,0.016,0.023,35.62,5.47,0
2294407.0,0.022,-0.02,-0.025,-30.51,-139.35,0
2294412.0,0.003,0.021,0.003,78.52,-38.15,0
2294417.0,0.003,0.011,0.049,13.13,-3.09,0
2294422.0,0.005,-0.013,0.039,-17.56,-7.3,0
2294427.0,-0.002,0.009,-0.035,14.44,176.47,0
2294432.0,-0.019,-0.005,0.008,-14.56,66.71,0
2294437.0,0.0,0.019,0.013,55.18,-1.06,0
2294442.0,0.019,0.023,0.015,43.41,-51.69,0
2294447.0,0.007,0.002,0.037,2.79,-11.38,0
2294452.0,-0.009,-0.029,0.018,-55.64,27.79,0
2294457.0,0.019,-0.008,-0.033,-11.54,-149.22,0
2294462.0,-0.002,0.004,-0.045,5.42,177.23,0
2294467.0,-0.014,0.021,-0.013,47.14,133.5,0
2294472.0,0.015,0.002,0.011,5.82,-54.19,0
2294477.0,0.034,-0.008,0.008,-12.57,-76.44,0
2294482.0,0.015,-0.025,-0.037,-31.42,-158.64,0
2294487.0,-0.026,0.014,-0.016,24.35,121.19,0
2294492.0,0.027,0.045,-0.028,49.45,-136.26,0
2294497.0,0.007,0.023,0.02,47.49,-20.26,0
2294502.0,-0.024,-0.034,0.03,-41.89,38.6,0
2294507.0,-0.007,0.011,-0.035,17.76,168.77,0
2294512.0,0.034,-0.013,-0.004,-20.24,-96.47,0
2294517.0,0.017,-0.022,-0.001,-52.34,-94.83,0
2294522.0,-0.036,-0.008,0.02,-10.7,60.59,0
2294527.0,-0.005,-0.017,0.03,-29.97,8.71,0
2294532.0,-0.021,0.028,0.025,40.68,40.56,0
2294537.0,0.022,-0.022,0.013,-41.11,-59.31,0
2294542.0,0.046,0.062,0.054,41.2,-40.45,0
2294547.0,-0.119,-0.072,0.001,-31.21,89.54,0
2294552.0,0.156,-0.187,0.159,-40.07,-44.43,0
2294557.0,-0.285,0.229,-0.104,37.1,110.14,0
2294562.0,-0.086,-0.113,-0.528,-11.93,170.76,0
2294567.0,-0.024,-0.017,0.207,-4.75,6.54,0
2294572.0,-0.038,-0.685,-0.009,-86.74,102.76,0
2294577.0,-0.04,-0.149,-0.282,-27.65,171.82,0
2294582.0,-0.057,0.308,0.008,79.38,81.9,0
2294587.0,0.18,0.064,-0.212,12.98,-139.71,0
2294592.0,0.053,-0.422,0.183,-65.71,-16.13,0
2294597.0,-0.392,0.191,0.106,25.16,74.84,0
2294602.0,-0.026,-0.003,-0.416,-0.41,176.41,0
2294607.0,-0.026,0.548,-0.346,57.63,175.69,0
2294612.0,-0.579,-0.927,-0.866,-41.67,146.22,0
2294617.0,0.118,-0.252,-0.306,-37.59,-158.95,0
2294622.0,-0.136,0.033,0.841,2.21,9.2,0
2294627.0,0.065,0.643,0.276,66.2,-13.22,0
2294632.0,-0.373,-0.326,-1.136,-15.25,161.82,0
2294637.0,0.103,0.394,-0.095,70.44,-132.58,0
2294642.0,-0.323,-0.309,0.432,-29.84,36.79,0
2294647.0,0.247,0.557,-0.03,65.95,-96.97,0
2294652.0,-0.515,-0.242,-0.689,-15.75,143.23,0
2294657.0,0.17,-0.003,-0.004,-0.99,-91.29,0
2294662.0,0.017,-0.594,-0.31,-62.4,-176.86,0
2294667.0,0.13,0.162,-0.416,20.44,-162.69,0
2294672.0,-0.198,-0.017,0.02,-4.96,84.21,0
2294677.0,0.237,0.33,0.542,29.14,-23.64,0
2294682.0,-0.273,-0.329,-0.04,-50.01,98.29,0
2294687.0,-0.038,0.265,-0.205,51.83,169.48,0
2294692.0,-0.424,-0.166,0.362,-16.56,49.44,0
2294697.0,0.127,0.327,0.801,22.0,-9.02,0
2294702.0,-0.218,-0.355,-0.246,-47.24,138.46,0
2294707.0,0.34,0.251,-0.435,24.43,-141.96,0
2294712.0,-0.215,-0.259,0.085,-48.25,68.51,0
2294717.0,0.362,0.366,0.269,39.05,-53.36,0
2294722.0,-0.249,-0.293,-0.296,-37.13,139.95,0
2294727.0,0.122,0.256,0.092,59.09,-53.08,0
2294732.0,-0.304,-0.276,0.386,-29.3,38.18,0
2294737.0,0.091,0.354,0.202,57.93,-24.3,0
2294742.0,-0.299,-0.41,-0.392,-39.76,142.64,0
2294747.0,0.359,0.366,0.204,41.5,-60.36,0
2294752.0,-0.352,-0.451,0.288,-44.74,50.66,0
2294757.0,0.367,0.56,0.044,56.59,-83.15,0
2294762.0,-0.392,-0.357,-0.224,-38.33,119.73,0
2294767.0,0.328,0.347,0.185,42.6,-60.55,0
2294772.0,-0.337,-0.357,0.015,-46.62,87.4,0
2294777.0,0.453,0.296,-0.112,32.44,-103.84,0
2294782.0,-0.275,-0.233,-0.133,-37.3,115.82,0
2294787.0,0.477,0.299,0.166,30.61,-70.78,0
2294792.0,-0.208,-0.372,-0.025,-60.58,96.95,0
2294797.0,0.417,0.411,0.118,43.5,-74.16,0
2294802.0,-0.474,-0.455,0.008,-43.86,89.02,0
2294807.0,0.249,0.411,0.243,49.77,-45.75,0
2294812.0,-0.464,-0.522,-0.047,-48.23,95.77,0
2294817.0,0.295,0.574,0.197,58.29,-56.2,0
2294822.0,-0.261,-0.321,-0.011,-50.92,92.42,0
2294827.0,0.515,0.43,-0.03,39.84,-93.35,0
2294832.0,-0.306,-0.494,-0.341,-47.11,138.11,0
2294837.0,0.47,0.385,0.07,39.03,-81.47,0
2294842.0,-0.433,-0.348,-0.104,-37.97,103.55,0
2294847.0,0.268,0.555,0.056,63.71,-78.21,0
2294852.0,-0.469,-0.537,-0.203,-46.42,113.36,0
2294857.0,0.197,0.469,0.269,54.59,-36.15,0
2294862.0,-0.495,-0.415,0.058,-39.74,83.27,0
2294867.0,0.304,0.485,0.013,57.9,-87.57,0
2294872.0,-0.354,-0.544,-0.136,-55.13,110.94,0
2294877.0,0.515,0.406,0.274,34.87,-61.99,0
2294882.0,-0.33,-0.417,-0.258,-44.89,127.96,0
2294887.0,0.589,0.502,-0.018,40.43,-91.77,0
2294892.0,-0.127,-0.362,0.013,-70.63,84.17,0
2294897.0,0.376,0.447,0.295,43.07,-51.85,0
2294902.0,-0.474,-0.4,-0.203,-37.85,113.15,0
2294907.0,0.304,0.411,0.145,50.67,-64.58,0
2294912.0,-0.634,-0.482,-0.083,-36.99,97.44,0
2294917.0,0.177,0.483,0.082,67.96,-65.1,0
2294922.0,-0.318,-0.408,-0.109,-50.46,108.94,0
2294927.0,0.419,0.466,0.106,47.15,-75.77,0
2294932.0,-0.251,-0.499,-0.277,-53.14,137.78,0
2294937.0,0.537,0.428,-0.023,38.55,-92.45,0
2294942.0,-0.301,-0.482,-0.203,-52.99,123.9,0
2294947.0,0.568,0.567,0.257,42.29,-65.63,0
2294952.0,-0.392,-0.374,0.121,-42.34,72.91,0
2294957.0,0.209,0.394,0.231,51.74,-42.1,0
2294962.0,-0.462,-0.36,-0.064,-37.65,97.85,0
2294967.0,0.058,0.38,0.178,63.78,-17.95,0
2294972.0,-0.443,-0.487,-0.183,-45.44,112.5,0
2294977.0,0.297,0.33,-0.229,41.33,-127.61,0
2294982.0,-0.273,-0.388,-0.432,-37.23,147.76,0
2294987.0,0.549,0.512,0.142,42.09,-75.46,0
2294992.0,-0.304,-0.362,-0.073,-49.2,103.56,0
2294997.0,0.35,0.33,-0.025,43.24,-94.15,0
2295002.0,-0.471,-0.379,-0.286,-34.48,121.28,0
2295007.0,0.209,0.43,0.236,53.83,-41.51,0
2295012.0,-0.467,-0.391,-0.013,-39.94,91.65,0
2295017.0,0.292,0.342,0.183,44.75,-57.97,0
2295022.0,-0.419,-0.494,-0.083,-49.16,101.19,0
2295027.0,0.343,0.5,0.245,49.87,-54.41,0
2295032.0,-0.222,-0.412,-0.334,-45.77,146.36,0
2295037.0,0.453,0.416,-0.162,40.87,-109.67,0
2295042.0,-0.263,-0.451,-0.054,-59.2,101.62,0
2295047.0,0.4,0.473,0.341,42.01,-49.56,0
2295052.0,-0.34,-0.276,-0.248,-33.26,126.13,0
2295057.0,0.175,0.157,-0.083,39.12,-115.33,0
2295062.0,-0.438,-0.273,0.03,-31.93,86.12,0
2295067.0,0.187,0.399,0.3,48.46,-31.91,0
2295072.0,-0.373,-0.297,-0.277,-32.62,126.56,0
2295077.0,0.213,0.387,-0.006,61.14,-91.67,0
2295082.0,-0.201,-0.297,-0.033,-55.62,99.21,0
2295087.0,0.343,0.313,0.034,42.28,-84.25,0
2295092.0,-0.299,-0.35,-0.394,-35.29,142.81,0
2295097.0,0.273,0.404,-0.08,54.82,-106.41,0
2295102.0,-0.273,-0.338,-0.133,-48.09,116.02,0
2295107.0,0.213,0.311,0.164,49.12,-52.49,0
2295112.0,-0.368,-0.238,-0.186,-29.93,116.76,0
2295117.0,0.115,0.282,-0.016,67.6,-97.81,0
2295122.0,-0.364,-0.273,-0.083,-36.25,102.83,0
2295127.0,0.07,0.299,0.195,55.28,-19.67,0
2295132.0,-0.397,-0.388,-0.394,-34.77,134.77,0
2295137.0,0.194,0.332,0.075,57.92,-68.83,0
2295142.0,-0.256,-0.376,0.023,-55.69,84.97,0
2295147.0,0.367,0.361,-0.112,43.29,-106.93,0
2295152.0,-0.222,-0.36,-0.48,-34.2,155.15,0
2295157.0,0.237,0.351,0.063,55.06,-75.08,0
2295162.0,-0.22,-0.257,-0.222,-39.42,135.22,0
2295167.0,0.058,0.232,-0.234,43.91,-166.13,0
2295172.0,-0.359,-0.269,-0.325,-29.04,132.13,0
2295177.0,0.175,0.155,0.281,25.09,-31.91,0
2295182.0,-0.445,-0.168,-0.049,-20.58,96.32,0
2295187.0,0.084,0.239,0.006,70.58,-86.09,0
2295192.0,-0.261,-0.266,-0.229,-37.51,131.28,0
2295197.0,0.149,0.287,0.152,53.46,-44.41,0
2295202.0,-0.172,-0.324,-0.315,-42.04,151.35,0
2295207.0,0.151,0.28,-0.152,52.5,-135.23,0
2295212.0,-0.189,-0.245,-0.169,-44.0,131.82,0
2295217.0,0.17,0.268,0.226,43.4,-36.99,0
2295222.0,-0.287,-0.329,-0.258,-40.43,131.91,0
2295227.0,0.048,0.33,0.027,80.48,-60.44,0
2295232.0,-0.335,-0.285,-0.236,-34.86,125.18,0
2295237.0,0.149,0.275,0.152,52.29,-44.41,0
2295242.0,-0.242,-0.412,-0.183,-53.66,127.2,0
2295247.0,0.153,0.289,-0.018,61.88,-96.76,0
2295252.0,-0.091,-0.235,-0.025,-68.17,105.63,0
2295257.0,0.194,0.342,0.046,59.71,-76.55,0
2295262.0,-0.234,-0.307,-0.109,-49.9,114.98,0
2295267.0,0.367,0.361,0.231,39.81,-57.8,0
2295272.0,-0.184,-0.168,0.14,-36.03,52.79,0
2295277.0,0.067,0.351,0.13,67.35,-27.32,0
2295282.0,-0.268,-0.441,-0.042,-58.41,98.94,0
2295287.0,0.039,0.236,0.188,50.98,-11.6,0
2295292.0,-0.184,-0.369,-0.045,-62.84,103.6,0
2295297.0,-0.005,0.287,0.147,62.85,1.77,0
2295302.0,-0.1,-0.266,0.08,-64.28,51.44,0
2295307.0,0.481,0.454,0.173,41.6,-70.2,0
2295312.0,-0.134,-0.527,-0.234,-62.95,150.2,0
2295317.0,0.084,0.447,0.023,78.99,-75.01,0
2295322.0,-0.158,-0.408,0.039,-68.25,76.02,0
2295327.0,0.039,0.368,0.188,62.5,-11.6,0
2295332.0,-0.39,-0.283,-0.126,-34.63,107.9,0
2295337.0,0.374,0.414,0.118,46.54,-72.44,0
2295342.0,-0.368,-0.379,-0.016,-45.77,92.46,0
2295347.0,0.345,0.418,0.149,48.06,-66.59,0
2295352.0,-0.428,-0.455,-0.121,-45.66,105.79,0
2295357.0,0.39,0.359,0.094,41.75,-76.42,0
2295362.0,-0.376,-0.47,-0.068,-50.9,100.33,0
2295367.0,0.429,0.548,0.161,50.09,-69.38,0
2295372.0,-0.352,-0.374,-0.1,-45.66,105.81,0
2295377.0,0.46,0.502,0.121,46.57,-75.3,0
2295382.0,-0.122,-0.353,-0.052,-69.42,112.99,0
2295387.0,0.453,0.301,0.176,31.8,-68.79,0
2295392.0,-0.452,-0.319,-0.109,-34.44,103.57,0
2295397.0,0.345,0.363,0.207,42.09,-59.05,0
2295402.0,-0.469,-0.257,-0.004,-28.69,90.47,0
2295407.0,0.398,0.469,0.07,49.25,-79.96,0
2295412.0,-0.309,-0.475,-0.157,-53.89,116.97,0
2295417.0,0.285,0.531,0.293,52.4,-44.22,0
2295422.0,-0.395,-0.357,-0.045,-41.96,96.44,0
2295427.0,0.259,0.375,0.082,54.11,-72.35,0
2295432.0,-0.395,-0.364,-0.212,-39.12,118.25,0
2295437.0,0.383,0.301,0.02,38.11,-87.0,0
2295442.0,-0.452,-0.269,-0.169,-29.1,110.49,0
2295447.0,0.426,0.327,0.334,31.16,-51.95,0
2295452.0,-0.316,-0.302,0.054,-43.34,80.36,0
2295457.0,0.477,0.306,0.011,32.68,-88.73,0
2295462.0,-0.17,-0.403,-0.234,-54.36,144.0,0
2295467.0,0.501,0.411,0.24,36.52,-64.35,0
2295472.0,-0.347,-0.386,0.054,-47.72,81.21,0
2295477.0,0.3,0.418,0.03,54.27,-84.34,0
2295482.0,-0.488,-0.446,-0.413,-34.88,130.25,0
2295487.0,0.29,0.45,0.011,57.16,-87.92,0
2295492.0,-0.39,-0.305,0.07,-37.55,79.77,0
2295497.0,0.268,0.409,0.372,41.71,-35.81,0
2295502.0,-0.335,-0.403,-0.368,-39.0,137.67,0
2295507.0,0.35,0.38,-0.011,47.37,-91.8,0
2295512.0,-0.352,-0.4,0.066,-48.22,79.43,0
2295517.0,0.4,0.392,0.264,39.27,-56.55,0
2295522.0,-0.376,-0.355,-0.38,-33.6,135.31,0
2295527.0,0.359,0.313,-0.248,35.64,-124.61,0
2295532.0,-0.526,-0.319,-0.25,-28.68,115.44,0
2295537.0,0.359,0.394,0.262,41.58,-53.91,0
2295542.0,-0.438,-0.281,-0.083,-32.2,100.71,0
2295547.0,0.168,0.404,0.051,66.53,-73.02,0
2295552.0,-0.452,-0.479,-0.385,-38.92,130.37,0
2295557.0,0.17,0.332,-0.092,59.76,-118.5,0
2295562.0,-0.467,-0.216,-0.08,-24.52,99.78,0
2295567.0,0.34,0.423,0.3,43.01,-48.57,0
2295572.0,-0.328,-0.336,-0.104,-44.31,107.67,0
2295577.0,0.194,0.244,-0.217,39.93,-138.17,0
2295582.0,-0.345,-0.475,-0.435,-40.55,141.61,0
2295587.0,0.283,0.452,0.264,49.42,-46.93,0
2295592.0,-0.447,-0.218,-0.04,-25.93,95.08,0
2295597.0,0.149,0.356,-0.054,66.05,-110.0,0
2295602.0,-0.194,-0.29,-0.274,-40.83,144.78,0
2295607.0,0.316,0.244,0.018,37.57,-86.79,0
2295612.0,-0.39,-0.312,-0.406,-28.98,136.15,0
2295617.0,0.249,0.251,0.075,43.94,-73.21,0
2295622.0,-0.198,-0.321,0.118,-54.29,59.21,0
2295627.0,0.137,0.435,0.013,72.49,-84.6,0
2295632.0,-0.416,-0.362,-0.497,-29.18,140.05,0
2295637.0,0.201,0.234,0.171,41.55,-49.67,0
2295642.0,-0.242,-0.302,0.063,-50.44,75.34,0
2295647.0,0.218,0.383,-0.042,59.85,-100.93,0
2295652.0,-0.244,-0.226,-0.253,-32.71,136.02,0
2295657.0,0.273,0.272,0.08,43.74,-73.68,0
2295662.0,-0.433,-0.355,-0.382,-31.57,131.42,0
2295667.0,0.213,0.301,0.049,53.99,-77.1,0
2295672.0,-0.378,-0.18,0.015,-25.46,87.68,0
2295677.0,0.089,0.287,0.113,63.32,-38.05,0
2295682.0,-0.354,-0.391,-0.466,-33.74,142.76,0
2295687.0,0.094,0.251,-0.04,67.93,-113.0,0
2295692.0,-0.129,-0.18,0.073,-50.56,60.58,0
2295697.0,0.161,0.289,0.073,58.62,-65.63,0
2295702.0,-0.254,-0.338,-0.492,-31.41,152.75,0
2295707.0,0.197,0.306,-0.033,56.92,-99.41,0
2295712.0,-0.196,-0.305,-0.001,-57.23,90.42,0
2295717.0,0.118,0.277,0.046,65.49,-68.44,0
2295722.0,-0.309,-0.262,-0.325,-30.28,136.45,0
2295727.0,0.094,0.21,0.063,61.74,-55.97,0
2295732.0,-0.325,-0.259,-0.195,-34.32,120.98,0
2295737.0,-0.002,0.275,0.042,81.37,2.96,0
2295742.0,-0.244,-0.19,-0.016,-37.81,93.71,0
2295747.0,0.101,0.253,0.039,66.87,-68.72,0
2295752.0,-0.167,-0.297,-0.406,-34.11,157.6,0
2295757.0,0.209,0.246,0.123,45.46,-59.45,0
2295762.0,-0.117,-0.319,-0.061,-67.5,117.63,0
2295767.0,0.151,0.296,-0.171,52.36,-138.61,0
2295772.0,-0.141,-0.211,-0.272,-34.59,152.59,0
2295777.0,0.106,0.201,0.178,44.08,-30.66,0
2295782.0,-0.177,-0.269,-0.04,-55.99,102.66,0
2295787.0,0.086,0.26,0.061,67.91,-54.87,0
2295792.0,-0.299,-0.226,-0.2,-32.09,123.8,0
2295797.0,0.012,0.268,0.157,59.59,-4.46,0
2295802.0,-0.22,-0.331,-0.035,-56.05,99.03,0
2295807.0,0.027,0.342,-0.001,85.55,-93.09,0
2295812.0,0.005,-0.302,-0.212,-54.93,-178.64,0
2295817.0,0.288,0.361,0.171,47.18,-59.27,0
2295822.0,-0.091,-0.455,0.001,-78.73,89.39,0
2295827.0,0.144,0.292,0.056,62.09,-68.73,0
2295832.0,-0.064,-0.218,-0.401,-28.26,170.88,0
2295837.0,0.185,0.38,0.267,49.53,-34.69,0
2295842.0,-0.38,-0.348,0.113,-41.21,73.39,0
2295847.0,0.031,0.208,0.07,69.65,-24.02,0
2295852.0,-0.141,-0.192,-0.219,-36.38,147.26,0
2295857.0,0.036,0.177,0.154,48.12,-13.2,0
2295862.0,-0.055,-0.362,-0.083,-74.66,146.5,0
2295867.0,0.082,0.258,0.152,56.26,-28.27,0
2295872.0,0.048,-0.209,-0.066,-68.62,-143.94,0
2295877.0,0.048,0.387,-0.095,74.65,-153.09,0
2295882.0,-0.352,-0.432,-0.114,-49.41,107.95,0
2295887.0,-0.122,0.509,0.451,47.47,15.12,0
2295892.0,-0.043,-0.41,0.171,-66.74,14.07,0
2295897.0,0.01,0.442,-0.131,73.49,-175.71,0
2295902.0,-0.16,-0.46,-0.325,-51.81,153.74,0
2295907.0,0.007,0.385,0.422,42.34,-1.01,0
2295912.0,0.027,-0.432,0.111,-75.17,-13.45,0
2295917.0,-0.002,0.347,-0.27,52.12,179.54,0
2295922.0,-0.323,-0.305,-0.217,-38.06,123.89,0
2295927.0,0.481,0.38,0.499,28.73,-43.98,0
2295932.0,-0.39,-0.388,-0.054,-44.61,97.9,0
2295937.0,0.333,0.294,-0.236,35.76,-125.33,0
2295942.0,-0.385,-0.295,-0.224,-33.51,120.19,0
2295947.0,0.393,0.454,0.41,38.65,-43.75,0
2295952.0,-0.316,-0.475,0.094,-55.22,73.37,0
2295957.0,0.326,0.366,-0.119,46.52,-110.02,0
2295962.0,-0.299,-0.398,-0.231,-46.47,127.72,0
2295967.0,0.369,0.627,0.305,52.63,-50.42,0
2295972.0,-0.445,-0.515,-0.193,-46.73,113.44,0
2295977.0,0.249,0.347,0.046,53.82,-79.44,0
2295982.0,-0.354,-0.259,0.157,-33.79,66.15,0
2295987.0,0.359,0.466,0.157,49.95,-66.46,0
2295992.0,-0.412,-0.391,-0.456,-32.46,137.95,0
2295997.0,0.311,0.22,-0.049,34.86,-99.0,0
2296002.0,-0.378,-0.403,-0.104,-45.76,105.44,0
2296007.0,0.537,0.495,0.169,41.36,-72.56,0
2296012.0,-0.273,-0.475,-0.246,-52.28,132.01,0
2296017.0,0.228,0.383,-0.042,58.81,-100.49,0
2296022.0,-0.476,-0.537,-0.183,-46.45,111.06,0
2296027.0,0.283,0.564,0.257,55.9,-47.72,0
2296032.0,-0.567,-0.278,-0.119,-25.65,101.83,0
2296037.0,0.23,0.385,0.092,57.23,-68.22,0
2296042.0,-0.356,-0.506,-0.183,-51.6,117.22,0
2296047.0,0.331,0.39,-0.033,49.55,-95.62,0
2296052.0,-0.345,-0.372,-0.32,-38.33,132.87,0
2296057.0,0.237,0.476,-0.004,63.5,-90.92,0
2296062.0,-0.28,-0.257,-0.205,-36.51,126.21,0
2296067.0,0.355,0.335,0.034,43.21,-84.45,0
2296072.0,-0.318,-0.369,-0.215,-43.9,123.99,0
2296077.0,0.175,0.32,0.159,53.56,-47.75,0
2296082.0,-0.388,-0.297,0.003,-37.5,89.5,0
2296087.0,0.194,0.32,0.068,57.28,-70.7,0
2296092.0,-0.433,-0.376,-0.361,-33.74,129.78,0
2296097.0,0.192,0.284,0.075,54.08,-68.59,0
2296102.0,-0.268,-0.331,-0.076,-49.93,105.77,0
2296107.0,0.242,0.438,0.109,58.77,-65.82,0
2296112.0,-0.232,-0.336,-0.32,-40.35,144.05,0
2296117.0,0.288,0.296,-0.071,45.02,-103.85,0
2296122.0,-0.289,-0.321,-0.217,-41.62,126.85,0
2296127.0,0.268,0.301,-0.016,48.24,-93.37,0
2296132.0,-0.356,-0.259,-0.2,-32.37,119.31,0
2296137.0,0.185,0.315,0.19,49.97,-44.16,0
2296142.0,-0.39,-0.302,-0.167,-35.47,113.13,0
2296147.0,0.084,0.339,-0.073,71.82,-131.08,0
2296152.0,-0.392,-0.269,-0.203,-31.32,117.3,0
2296157.0,0.24,0.275,0.226,39.83,-46.68,0
2296162.0,-0.44,-0.336,-0.102,-36.61,103.04,0
2296167.0,0.187,0.394,-0.083,62.6,-113.89,0
2296172.0,-0.189,-0.367,-0.411,-39.05,155.31,0
2296177.0,0.276,0.323,0.272,39.83,-45.43,0
2296182.0,-0.129,-0.324,0.037,-67.49,74.05,0
2296187.0,0.189,0.387,-0.207,54.06,-137.59,0
2296192.0,-0.266,-0.283,-0.27,-36.8,135.44,0
2296197.0,0.17,0.304,0.348,38.07,-26.06,0
2296202.0,-0.361,-0.3,-0.193,-36.21,118.11,0
2296207.0,0.07,0.21,-0.37,29.16,-169.34,0
2296212.0,-0.28,-0.206,-0.171,-32.17,121.49,0
2296217.0,0.153,0.308,0.173,53.09,-41.52,0
2296222.0,-0.311,-0.293,-0.449,-28.18,145.3,0
2296227.0,0.137,0.224,-0.006,58.63,-92.61,0
2296232.0,-0.263,-0.235,-0.057,-41.15,102.12,0
2296237.0,0.096,0.244,0.032,67.44,-71.52,0
2296242.0,-0.258,-0.319,-0.358,-35.84,144.2,0
2296247.0,0.055,0.368,-0.001,81.45,-91.49,0
2296252.0,-0.21,-0.276,-0.126,-48.36,120.9,0
2296257.0,0.125,0.215,0.106,52.67,-49.56,0
2296262.0,-0.282,-0.262,-0.294,-32.71,136.12,0
2296267.0,0.11,0.28,0.03,67.76,-74.94,0
2296272.0,-0.17,-0.218,-0.138,-44.96,129.09,0
2296277.0,0.23,0.275,0.099,47.64,-66.69,0
2296282.0,-0.196,-0.412,-0.222,-54.33,138.51,0
2296287.0,0.158,0.416,0.061,67.83,-68.98,0
2296292.0,-0.172,-0.259,-0.186,-45.65,137.18,0
2296297.0,0.055,0.203,-0.042,71.09,-127.3,0
2296302.0,-0.34,-0.278,-0.215,-34.71,122.27,0
2296307.0,0.106,0.337,0.169,59.45,-32.06,0
2296312.0,-0.222,-0.199,-0.191,-34.23,130.59,0
2296317.0,0.053,0.268,-0.143,60.37,-159.65,0
2296322.0,-0.127,-0.372,0.099,-66.6,51.95,0
2296327.0,0.058,0.186,0.2,41.85,-16.12,0
2296332.0,-0.155,-0.185,-0.102,-44.85,123.28,0
2296337.0,-0.084,0.275,-0.136,59.91,148.34,0
2296342.0,-0.21,-0.312,-0.253,-43.47,140.23,0
2296347.0,-0.036,0.224,0.221,45.05,9.16,0
2296352.0,-0.155,-0.19,-0.133,-42.83,130.59,0
2296357.0,0.309,0.332,-0.042,46.8,-97.76,0
2296362.0,-0.208,-0.393,0.185,-54.68,48.31,0
2296367.0,-0.007,0.253,-0.059,76.82,173.28,0
2296372.0,-0.309,-0.324,-0.413,-32.12,143.25,0
2296377.0,-0.117,0.375,-0.006,72.65,93.04,0
2296382.0,-0.167,-0.293,-0.054,-58.99,107.92,0
2296387.0,-0.012,0.179,0.161,47.89,4.16,0
2296392.0,-0.131,-0.388,-0.174,-60.71,142.9,0
2296397.0,0.175,0.332,-0.061,60.83,-109.3,0
2296402.0,0.067,-0.278,0.013,-76.17,-79.12,0
2296407.0,0.067,0.325,0.09,70.99,-36.92,0
2296412.0,0.082,-0.348,-0.2,-58.13,-157.81,0
2296417.0,-0.014,0.287,0.006,86.96,67.86,0
2296422.0,-0.019,-0.214,0.068,-71.72,15.54,0
2296427.0,-0.021,0.253,0.149,59.21,8.12,0
2296432.0,-0.122,-0.372,-0.018,-71.66,98.49,0
2296437.0,-0.009,0.251,0.279,41.97,1.92,0
2296442.0,-0.388,-0.489,-0.195,-48.4,116.75,0
2296447.0,-0.069,0.325,0.023,77.38,71.98,0
2296452.0,0.132,-0.42,0.003,-72.54,-88.54,0
2296457.0,0.055,0.234,0.092,65.37,-31.03,0
2296462.0,0.086,-0.415,-0.394,-45.79,-167.63,0
2296467.0,0.204,0.466,-0.179,59.84,-131.24,0
2296472.0,-0.052,-0.23,-0.018,-76.46,109.14,0
2296477.0,-0.072,0.301,0.334,41.42,12.11,0
2296482.0,-0.361,-0.391,-0.021,-47.2,93.26,0
2296487.0,-0.306,0.466,0.202,51.81,56.58,0
2296492.0,-0.012,-0.422,0.169,-68.18,3.98,0
2296497.0,-0.038,0.368,0.054,79.87,35.37,0
2296502.0,0.139,-0.467,-0.54,-39.96,-165.56,0
2296507.0,0.0,0.476,0.044,84.71,-0.31,0
2296512.0,0.242,-0.307,-0.064,-50.81,-104.74,0
2296517.0,0.369,0.292,0.001,38.31,-89.85,0
2296522.0,-0.476,-0.422,-0.38,-34.71,128.57,0
2296527.0,0.295,0.462,0.14,54.75,-64.62,0
2296532.0,-0.347,-0.321,-0.121,-41.17,109.25,0
2296537.0,0.173,0.311,-0.083,58.36,-115.64,0
2296542.0,-0.479,-0.398,-0.131,-38.74,105.28,0
2296547.0,0.328,0.38,0.295,40.72,-48.01,0
2296552.0,-0.412,-0.297,-0.253,-31.62,121.56,0
2296557.0,0.273,0.299,-0.14,44.21,-117.18,0
2296562.0,-0.371,-0.367,-0.08,-44.03,102.24,0
2296567.0,0.328,0.397,0.245,44.09,-53.24,0
2296572.0,-0.316,-0.448,-0.315,-45.14,134.93,0
2296577.0,0.271,0.385,-0.085,53.59,-107.47,0
2296582.0,-0.361,-0.46,-0.083,-51.15,102.91,0
2296587.0,0.292,0.421,0.063,54.6,-77.8,0
2296592.0,-0.424,-0.321,-0.334,-30.78,128.28,0
2296597.0,0.194,0.342,0.018,60.3,-84.79,0
2296602.0,-0.452,-0.223,-0.04,-26.18,95.02,0
2296607.0,0.161,0.344,0.03,64.61,-79.53,0
2296612.0,-0.311,-0.432,-0.203,-49.3,123.07,0
2296617.0,0.34,0.287,0.214,35.5,-57.82,0
2296622.0,-0.294,-0.283,-0.195,-38.71,123.58,0
2296627.0,0.331,0.361,-0.152,44.76,-114.73,0
2296632.0,-0.27,-0.273,-0.2,-39.12,126.52,0
2296637.0,0.256,0.387,0.181,51.0,-54.85,0
2296642.0,-0.366,-0.405,-0.341,-38.99,133.0,0
2296647.0,0.015,0.385,-0.255,56.41,-176.72,0
2296652.0,-0.4,-0.3,-0.131,-35.49,108.12,0
2296657.0,0.058,0.359,0.216,58.01,-14.93,0
2296662.0,-0.495,-0.391,-0.21,-36.0,112.95,0
2296667.0,0.146,0.378,0.044,67.98,-73.24,0
2296672.0,-0.222,-0.321,-0.09,-53.25,112.03,0
2296677.0,0.376,0.32,0.116,39.14,-72.88,0
2296682.0,-0.081,-0.412,-0.375,-47.07,167.79,0
2296687.0,0.369,0.43,-0.068,48.92,-100.51,0
2296692.0,-0.158,-0.204,-0.203,-38.48,142.08,0
2296697.0,0.098,0.234,0.037,65.82,-69.46,0
2296702.0,-0.565,-0.333,-0.226,-28.71,111.85,0
2296707.0,0.027,0.301,0.264,48.58,-5.74,0
2296712.0,-0.402,-0.264,-0.083,-32.74,101.64,0
2296717.0,0.089,0.244,-0.09,62.57,-135.38,0
2296722.0,-0.208,-0.341,-0.222,-48.24,136.82,0
2296727.0,0.268,0.435,0.295,47.47,-42.25,0
2296732.0,-0.081,-0.314,-0.44,-35.1,169.54,0
2296737.0,0.352,0.318,-0.478,28.17,-143.61,0
2296742.0,-0.244,-0.405,-0.303,-46.16,141.17,0
2296747.0,0.158,0.416,0.276,52.57,-29.8,0
2296752.0,-0.483,-0.24,-0.198,-24.68,112.25,0
2296757.0,-0.112,0.179,-0.001,57.9,90.73,0
2296762.0,-0.404,-0.398,0.135,-43.03,71.53,0
2296767.0,0.055,0.351,0.475,36.31,-6.64,0
2296772.0,-0.136,-0.082,-0.262,-15.49,152.56,0
2296777.0,0.276,0.32,-0.183,44.05,-123.64,0
2296782.0,0.041,-0.432,-0.296,-55.3,-172.12,0
2296787.0,0.34,0.213,-0.159,29.49,-115.11,0
2296792.0,-0.096,-0.297,-0.44,-33.47,167.74,0
2296797.0,0.12,0.311,-0.016,68.72,-97.5,0
2296802.0,-0.436,-0.235,0.066,-28.1,81.43,0
2296807.0,-0.05,0.251,0.169,54.97,16.53,0
2296812.0,-0.289,-0.305,-0.112,-44.48,111.08,0
2296817.0,0.003,0.304,0.293,46.0,-0.51,0
2296822.0,-0.124,-0.288,-0.126,-58.43,135.38,0
2296827.0,0.211,0.301,-0.25,42.6,-139.89,0
2296832.0,-0.069,-0.259,-0.43,-30.75,170.86,0
2296837.0,0.254,0.26,0.286,34.25,-41.62,0
2296842.0,-0.148,-0.336,-0.27,-47.5,151.2,0
2296847.0,-0.055,0.26,-0.325,38.34,170.41,0
2296852.0,-0.155,-0.127,0.068,-36.92,66.37,0
2296857.0,-0.036,0.318,0.449,35.23,4.55,0
2296862.0,-0.256,-0.341,-0.315,-39.99,140.91,0
2296867.0,-0.028,0.193,-0.145,52.6,168.89,0
2296872.0,-0.038,-0.324,0.068,-76.47,29.24,0
2296877.0,0.17,0.442,0.209,58.63,-39.13,0
2296882.0,0.058,-0.329,-0.313,-45.94,-169.54,0
2296887.0,0.118,0.246,-0.128,54.73,-137.51,0
2296892.0,0.01,-0.324,-0.162,-63.4,-176.53,0
2296897.0,0.027,0.327,0.082,75.2,-17.88,0
2296902.0,-0.007,-0.262,-0.04,-81.23,170.09,0
2296907.0,-0.026,0.287,0.02,83.45,52.38,0
2296912.0,-0.172,-0.369,-0.255,-50.18,146.0,0
2296917.0,0.012,0.256,0.154,58.82,-4.53,0
2296922.0,-0.163,-0.343,0.178,-54.88,42.38,0
2296927.0,-0.031,0.313,0.195,57.78,9.01,0
2296932.0,0.031,-0.345,-0.2,-59.6,-171.09,0
2296937.0,0.113,0.26,-0.013,66.44,-96.78,0
2296942.0,0.149,-0.197,0.034,-52.22,-76.94,0
2296947.0,0.091,0.215,0.192,45.26,-25.36,0
2296952.0,0.127,-0.233,-0.126,-52.45,-134.73,0
2296957.0,0.106,0.196,0.023,61.13,-77.97,0
2296962.0,-0.024,-0.379,-0.121,-71.95,168.93,0
2296967.0,-0.031,0.292,0.111,68.42,15.54,0
2296972.0,-0.115,-0.295,-0.131,-59.49,138.74,0
2296977.0,-0.105,0.33,0.073,68.81,55.3,0
2296982.0,-0.069,-0.343,-0.049,-76.08,125.48,0
2296987.0,-0.086,0.284,0.061,69.68,54.72,0
2296992.0,0.005,-0.307,0.042,-82.22,-6.88,0
2296997.0,0.034,0.335,0.171,62.49,-11.17,0
2297002.0,0.168,-0.321,-0.236,-47.97,-144.59,0
2297007.0,-0.009,0.148,-0.255,30.07,177.9,0
2297012.0,0.003,-0.221,-0.246,-41.95,-179.39,0
2297017.0,0.039,0.318,0.212,55.91,-10.32,0
2297022.0,-0.045,-0.235,0.111,-62.98,22.16,0
2297027.0,-0.187,0.088,-0.116,21.82,121.96,0
2297032.0,0.022,-0.266,-0.119,-65.61,-169.6,0
2297037.0,-0.088,0.227,0.185,47.86,25.49,0
2297042.0,-0.402,-0.317,-0.088,-37.58,102.3,0
2297047.0,-0.055,0.093,-0.04,53.89,125.94,0
2297052.0,0.168,-0.183,-0.337,-25.88,-153.5,0
2297057.0,0.137,0.28,-0.042,62.9,-107.13,0
2297062.0,0.247,-0.235,-0.121,-40.54,-116.14,0
2297067.0,-0.017,0.363,0.183,63.19,5.16,0
2297072.0,0.115,-0.302,-0.143,-58.75,-141.09,0
2297077.0,-0.196,0.335,0.044,59.01,77.34,0
2297082.0,-0.486,-0.24,-0.143,-25.36,106.37,0
2297087.0,-0.251,0.428,0.346,45.05,36.0,0
2297092.0,0.11,-0.35,-0.045,-71.22,-111.97,0
2297097.0,-0.131,0.186,-0.241,34.16,151.38,0
2297102.0,0.288,-0.288,-0.425,-29.28,-145.93,0
2297107.0,0.058,0.447,0.104,75.11,-29.04,0
2297112.0,-0.285,-0.348,-0.138,-47.71,115.85,0
2297117.0,0.383,0.327,0.07,40.04,-79.59,0
2297122.0,-0.337,-0.448,-0.289,-45.27,130.56,0
2297127.0,0.28,0.378,0.087,52.14,-72.73,0
2297132.0,-0.297,-0.273,0.121,-40.5,67.86,0
2297137.0,0.168,0.342,0.159,55.93,-46.55,0
2297142.0,-0.361,-0.429,-0.456,-36.4,141.63,0
2297147.0,0.232,0.38,-0.035,58.26,-98.55,0
2297152.0,-0.277,-0.199,0.097,-34.14,70.78,0
2297157.0,0.213,0.272,0.049,51.22,-77.1,0
2297162.0,-0.395,-0.35,-0.48,-29.39,140.58,0
2297167.0,0.197,0.344,-0.009,60.25,-92.51,0
2297172.0,-0.321,-0.262,-0.03,-39.08,95.38,0
2297177.0,0.11,0.248,-0.088,60.44,-128.45,0
2297182.0,-0.424,-0.386,-0.298,-36.69,125.16,0
2297187.0,0.175,0.394,0.032,65.72,-79.61,0
2297192.0,-0.361,-0.271,-0.157,-34.53,113.5,0
2297197.0,0.221,0.234,0.058,45.74,-75.16,0
2297202.0,-0.412,-0.29,-0.267,-30.61,122.99,0
2297207.0,0.249,0.337,-0.042,53.13,-99.6,0
2297212.0,-0.222,-0.238,-0.124,-43.04,119.05,0
2297217.0,0.173,0.282,0.2,46.89,-40.84,0
2297222.0,-0.242,-0.446,-0.162,-56.89,123.82,0
2297227.0,0.17,0.402,-0.162,59.68,-133.55,0
2297232.0,-0.282,-0.3,-0.447,-29.57,147.71,0
2297237.0,0.192,0.351,0.3,44.61,-32.57,0
2297242.0,-0.503,-0.42,0.023,-39.83,87.44,0
2297247.0,0.094,0.38,-0.183,61.56,-152.96,0
2297252.0,-0.342,-0.307,-0.428,-29.28,141.34,0
2297257.0,0.067,0.354,0.212,57.88,-17.63,0
2297262.0,-0.282,-0.403,-0.301,-44.32,136.81,0
2297267.0,0.23,0.426,-0.126,58.36,-118.69,0
2297272.0,-0.158,-0.309,-0.116,-57.64,126.41,0
2297277.0,0.168,0.371,0.133,60.0,-51.68,0
2297282.0,-0.345,-0.458,-0.408,-40.59,139.85,0
2297287.0,0.206,0.275,0.025,52.92,-83.11,0
2297292.0,-0.194,-0.278,0.015,-55.08,85.48,0
2297297.0,0.127,0.315,0.015,67.91,-83.13,0
2297302.0,-0.273,-0.216,-0.255,-30.05,133.1,0
2297307.0,0.137,0.268,0.128,55.03,-46.92,0
2297312.0,-0.182,-0.242,-0.186,-43.0,135.63,0
2297317.0,0.048,0.189,-0.121,55.35,-158.34,0
2297322.0,-0.208,-0.367,-0.143,-55.48,124.44,0
2297327.0,0.125,0.447,0.331,51.63,-20.63,0
2297332.0,-0.23,-0.3,-0.15,-47.56,123.13,0
2297337.0,0.091,0.22,-0.162,49.78,-150.59,0
2297342.0,-0.191,-0.391,-0.291,-48.29,146.69,0
2297347.0,0.125,0.397,0.123,66.18,-45.39,0
2297352.0,-0.107,-0.214,-0.085,-57.29,128.41,0
2297357.0,0.177,0.301,-0.011,59.45,-93.55,0
2297362.0,-0.158,-0.625,-0.308,-61.05,152.87,0
2297367.0,0.127,0.421,0.281,53.76,-24.34,0
2297372.0,-0.019,-0.257,0.312,-39.38,3.47,0
2297377.0,0.206,0.43,-0.009,64.39,-92.39,0
2297382.0,-0.103,-0.408,-0.361,-47.39,164.1,0
2297387.0,-0.024,0.26,0.178,55.39,7.58,0
2297392.0,-0.261,-0.156,0.044,-30.57,80.41,0
2297397.0,-0.093,0.359,0.013,75.31,82.1,0
2297402.0,-0.122,-0.453,-0.358,-50.14,161.21,0
2297407.0,-0.079,0.299,-0.09,68.18,138.81,0
2297412.0,-0.057,-0.312,-0.258,-49.76,167.48,0
2297417.0,0.132,0.464,0.176,64.65,-36.89,0
2297422.0,-0.115,-0.412,-0.2,-60.78,150.19,0
2297427.0,-0.038,0.172,-0.176,43.62,167.81,0
2297432.0,-0.127,-0.273,-0.181,-51.07,145.02,0
2297437.0,-0.002,0.337,0.171,63.1,0.72,0
2297442.0,-0.107,-0.206,-0.171,-45.58,147.91,0
2297447.0,0.0,0.136,0.056,67.6,-0.24,0
2297452.0,-0.05,-0.398,-0.042,-80.67,130.1,0
2297457.0,-0.007,0.373,0.123,71.71,3.23,0
2297462.0,0.027,-0.214,0.008,-82.59,-72.97,0
2297467.0,-0.05,0.227,0.204,47.15,13.75,0
2297472.0,0.031,-0.3,-0.114,-68.48,-164.61,0
2297477.0,0.108,0.263,0.044,66.07,-67.81,0
2297482.0,-0.005,-0.29,0.046,-80.87,5.59,0
2297487.0,-0.019,0.229,0.099,66.25,10.8,0
2297492.0,-0.067,-0.242,-0.308,-37.57,167.76,0
2297497.0,0.125,0.198,-0.076,53.64,-121.24,0
2297502.0,0.098,-0.309,0.078,-67.95,-51.75,0
2297507.0,0.046,0.304,0.2,55.98,-12.9,0
2297512.0,0.12,-0.307,-0.145,-58.48,-140.42,0
2297517.0,-0.091,0.236,0.073,63.81,51.27,0
2297522.0,-0.105,-0.271,-0.042,-67.33,111.85,0
2297527.0,-0.143,0.213,0.09,51.5,58.02,0
2297532.0,-0.112,-0.171,0.075,-51.61,56.2,0
2297537.0,-0.148,0.32,0.202,51.96,36.26,0
2297542.0,0.101,-0.345,-0.042,-72.44,-112.69,0
2297547.0,-0.067,0.201,-0.021,70.78,107.13,0
2297552.0,0.278,-0.202,-0.049,-35.54,-100.06,0
2297557.0,0.082,0.232,-0.018,70.15,-102.56,0
2297562.0,0.199,-0.405,-0.169,-57.21,-130.35,0
2297567.0,-0.062,0.165,0.13,48.78,25.46,0
2297572.0,-0.009,-0.223,0.125,-60.59,4.26,0
2297577.0,-0.139,0.292,0.111,58.64,51.29,0
2297582.0,0.06,-0.238,0.008,-75.68,-82.29,0
2297587.0,-0.112,0.141,0.14,38.12,38.77,0
2297592.0,0.096,-0.247,0.011,-68.66,-83.74,0
2297597.0,0.053,0.167,0.063,63.73,-39.93,0
2297602.0,-0.297,-0.293,-0.207,-38.96,124.95,0
2297607.0,-0.11,0.124,-0.078,42.6,125.38,0
2297612.0,0.153,-0.151,-0.097,-39.81,-122.35,0
2297617.0,-0.203,0.145,0.157,29.55,52.39,0
2297622.0,0.209,-0.036,-0.131,-8.43,-122.08,0
2297627.0,-0.23,0.09,-0.018,21.43,94.53,0
2297632.0,0.24,-0.151,-0.262,-23.07,-137.59,0
2297637.0,-0.031,0.059,0.092,31.44,18.57,0
2297642.0,-0.309,-0.357,-0.195,-44.37,122.34,0
2297647.0,-0.012,0.141,-0.071,62.95,170.6,0
2297652.0,0.144,-0.142,-0.229,-27.68,-147.84,0
2297657.0,-0.222,0.076,0.154,15.7,55.27,0
2297662.0,0.11,-0.393,0.044,-73.18,-68.24,0
2297667.0,-0.385,0.402,0.147,44.25,69.11,0
2297672.0,0.072,-0.326,-0.191,-58.01,-159.29,0
2297677.0,-0.239,0.327,0.003,53.85,89.2,0
2297682.0,-0.194,-0.309,-0.126,-53.25,123.03,0
2297687.0,0.022,0.344,0.073,77.55,-16.66,0
2297692.0,0.352,-0.357,-0.432,-32.65,-140.84,0
2297697.0,0.101,0.289,-0.126,60.84,-141.33,0
2297702.0,0.323,-0.262,-0.095,-37.81,-106.34,0
2297707.0,0.086,0.265,0.003,71.94,-87.78,0
2297712.0,-0.529,-0.29,-0.212,-26.99,111.86,0
2297717.0,-0.038,0.38,0.391,44.04,5.56,0
2297722.0,-0.431,-0.331,0.027,-37.48,86.37,0
2297727.0,0.058,0.28,-0.291,43.29,-168.79,0
2297732.0,-0.266,-0.353,-0.435,-34.68,148.59,0
2297737.0,0.379,0.363,0.125,42.34,-71.66,0
2297742.0,-0.055,-0.331,-0.035,-78.88,122.52,0
2297747.0,0.39,0.428,0.056,47.33,-81.84,0
2297752.0,-0.268,-0.434,-0.423,-40.92,147.64,0
2297757.0,0.058,0.296,-0.073,72.53,-141.78,0
2297762.0,-0.321,-0.19,-0.102,-29.42,107.65,0
2297767.0,0.065,0.215,0.094,61.96,-34.52,0
2297772.0,-0.479,-0.218,-0.124,-23.84,104.47,0
2297777.0,0.141,0.213,0.257,35.91,-28.82,0
2297782.0,-0.215,-0.353,-0.016,-58.52,94.2,0
2297787.0,0.127,0.414,-0.109,67.95,-130.65,0
2297792.0,-0.222,-0.302,-0.373,-34.86,149.16,0
2297797.0,0.28,0.277,0.178,39.84,-57.57,0
2297802.0,-0.127,-0.396,-0.298,-50.67,157.0,0
2297807.0,0.268,0.347,-0.231,44.37,-130.75,0
2297812.0,-0.287,-0.194,-0.243,-27.33,130.28,0
2297817.0,0.173,0.236,0.456,25.88,-20.74,0
2297822.0,-0.215,-0.369,0.044,-59.25,78.43,0
2297827.0,0.046,0.339,-0.03,80.83,-123.41,0
2297832.0,-0.277,-0.211,-0.2,-31.69,125.8,0
2297837.0,0.094,0.38,0.171,62.85,-28.71,0
2297842.0,-0.266,-0.348,-0.219,-45.28,129.56,0
2297847.0,0.151,0.239,-0.116,51.4,-127.6,0
2297852.0,-0.184,-0.317,-0.313,-41.1,149.51,0
2297857.0,0.12,0.301,-0.016,68.11,-97.5,0
2297862.0,-0.287,-0.434,-0.289,-46.82,135.17,0
2297867.0,0.06,0.394,0.049,78.89,-50.9,0
2297872.0,-0.21,-0.233,-0.119,-43.93,119.44,0
2297877.0,-0.014,0.313,0.094,73.06,8.52,0
2297882.0,-0.258,-0.3,-0.322,-35.98,141.28,0
2297887.0,-0.007,0.16,0.056,70.55,7.06,0
2297892.0,-0.103,-0.223,0.015,-65.05,81.51,0
2297897.0,0.103,0.33,0.109,65.56,-43.51,0
2297902.0,-0.098,-0.288,-0.255,-46.48,159.01,0
2297907.0,0.079,0.301,-0.009,75.17,-96.21,0
2297912.0,-0.05,-0.353,-0.198,-59.94,165.8,0
2297917.0,0.06,0.296,0.133,63.83,-24.37,0
2297922.0,-0.21,-0.317,0.001,-56.39,89.74,0
2297927.0,0.065,0.392,0.166,65.54,-21.33,0
2297932.0,-0.251,-0.374,-0.306,-43.4,140.58,0
2297937.0,0.01,0.311,-0.121,68.63,-175.37,0
2297942.0,-0.093,-0.324,-0.03,-73.18,107.95,0
2297947.0,-0.043,0.296,-0.042,78.53,134.52,0
2297952.0,-0.079,-0.216,-0.404,-27.71,168.96,0
2297957.0,0.036,0.32,0.051,78.92,-35.21,0
2297962.0,-0.107,-0.391,-0.059,-72.59,118.72,0
2297967.0,-0.031,0.258,0.027,80.92,48.53,0
2297972.0,-0.107,-0.29,-0.176,-54.58,148.61,0
2297977.0,-0.038,0.306,0.121,67.53,17.51,0
2297982.0,-0.112,-0.341,-0.155,-60.7,144.02,0
2297987.0,0.027,0.229,-0.047,76.76,-150.48,0
2297992.0,0.149,-0.259,-0.133,-52.4,-131.84,0
2297997.0,0.192,0.445,0.317,50.21,-31.17,0
2298002.0,0.019,-0.3,0.006,-86.14,-73.49,0
2298007.0,-0.028,0.105,-0.164,32.15,170.16,0
2298012.0,-0.196,-0.367,-0.126,-57.58,122.71,0
2298017.0,-0.088,0.464,0.348,52.25,14.24,0
2298022.0,-0.11,-0.415,0.075,-72.2,55.62,0
2298027.0,-0.11,0.277,-0.109,60.8,134.81,0
2298032.0,0.113,-0.36,-0.068,-69.86,-121.27,0
2298037.0,0.074,0.315,0.264,48.96,-15.73,0
2298042.0,0.194,-0.197,0.008,-45.37,-87.6,0
2298047.0,0.082,0.222,-0.128,55.6,-147.54,0
2298052.0,0.115,-0.41,-0.162,-64.15,-144.57,0
2298057.0,0.029,0.308,0.135,65.87,-12.11,0
2298062.0,-0.038,-0.333,-0.076,-75.74,153.29,0
2298067.0,-0.036,0.296,-0.004,83.1,96.13,0
2298072.0,-0.045,-0.247,-0.138,-59.58,161.83,0
2298077.0,-0.107,0.26,0.238,44.92,24.31,0
2298082.0,-0.005,-0.23,0.094,-67.71,2.76,0
2298087.0,-0.21,0.258,-0.076,49.08,109.77,0
2298092.0,0.125,-0.223,-0.004,-60.79,-91.76,0
2298097.0,-0.007,0.165,0.169,44.3,2.36,0
2298102.0,0.242,-0.288,-0.164,-44.54,-124.16,0
2298107.0,-0.012,0.191,-0.09,64.58,172.58,0
2298112.0,0.225,-0.187,0.128,-35.87,-60.43,0
2298117.0,-0.009,0.172,0.269,32.54,1.99,0
2298122.0,0.17,-0.173,-0.205,-32.99,-140.29,0
2298127.0,-0.268,0.088,0.037,18.03,82.16,0
2298132.0,0.062,-0.149,-0.052,-61.44,-129.61,0
2298137.0,-0.23,0.071,0.018,17.2,85.59,0
2298142.0,0.158,-0.178,-0.076,-45.38,-115.55,0
2298147.0,-0.105,0.167,-0.066,53.38,122.16,0
2298152.0,0.187,-0.147,-0.162,-30.66,-130.88,0
2298157.0,-0.146,0.09,0.063,29.64,66.56,0
2298162.0,0.235,-0.388,-0.128,-55.43,-118.65,0
2298167.0,-0.165,0.148,0.173,31.72,43.58,0
2298172.0,0.256,-0.178,0.025,-34.6,-84.45,0
2298177.0,-0.22,0.062,0.001,15.66,89.75,0
2298182.0,0.331,-0.053,0.245,-7.37,-53.44,0
2298187.0,-0.103,0.105,0.305,18.03,18.61,0
2298192.0,0.285,-0.123,0.049,-22.98,-80.28,0
2298197.0,-0.096,0.052,-0.018,28.19,100.78,0
2298202.0,0.371,-0.25,-0.234,-29.63,-122.18,0
2298207.0,-0.098,-0.025,0.003,-14.04,88.04,0
2298212.0,0.295,0.004,-0.145,0.74,-116.21,0
2298217.0,-0.141,-0.041,-0.025,-16.06,100.2,0
2298222.0,0.386,0.093,-0.286,10.94,-126.59,0
2298227.0,-0.179,-0.051,0.011,-15.8,86.64,0
2298232.0,0.132,-0.027,-0.116,-8.69,-131.41,0
2298237.0,-0.218,0.038,0.209,7.13,46.12,0
2298242.0,-0.412,-0.42,-0.241,-41.34,120.34,0
2298247.0,-0.251,0.031,-0.021,6.92,94.69,0
2298252.0,0.261,0.007,-0.035,1.44,-97.62,0
2298257.0,-0.019,0.38,0.063,80.15,16.66,0
2298262.0,0.549,-0.379,-0.619,-24.61,-138.46,0
2298267.0,-0.081,0.351,-0.176,61.1,155.27,0
2298272.0,0.424,-0.24,0.068,-29.2,-80.89,0
2298277.0,-0.297,0.248,0.099,38.46,71.52,0
2298282.0,-0.491,-0.24,-0.279,-23.03,119.64,0
2298287.0,-0.33,0.385,0.149,46.73,65.65,0
2298292.0,0.17,-0.281,-0.157,-50.47,-132.7,0
2298297.0,0.079,0.215,-0.052,66.24,-123.13,0
2298302.0,-0.273,-0.331,-0.171,-45.78,122.15,0
2298307.0,0.232,0.311,0.063,52.21,-74.79,0
2298312.0,-0.124,-0.23,-0.425,-27.48,163.71,0
2298317.0,0.264,0.227,-0.162,36.26,-121.55,0
2298322.0,-0.143,-0.317,-0.212,-51.03,145.94,0
2298327.0,0.072,0.27,-0.078,68.52,-137.28,0
2298332.0,-0.373,-0.24,-0.231,-28.66,121.78,0
2298337.0,0.022,0.402,0.226,60.52,-5.51,0
2298342.0,-0.481,-0.29,-0.128,-30.24,104.94,0
2298347.0,0.012,0.222,-0.112,63.19,-173.75,0
2298352.0,-0.309,-0.312,-0.277,-36.95,131.89,0
2298357.0,0.204,0.27,0.078,51.08,-69.16,0
2298362.0,-0.079,-0.202,-0.188,-44.67,157.29,0
2298367.0,0.213,0.215,-0.057,44.24,-104.84,0
2298372.0,-0.187,-0.259,-0.241,-40.39,142.25,0
2298377.0,0.094,0.311,0.118,64.1,-38.36,0
2298382.0,-0.342,-0.271,-0.217,-33.79,122.38,0
2298387.0,-0.05,0.306,0.037,78.51,53.62,0
2298392.0,-0.28,-0.312,-0.181,-43.09,122.89,0
2298397.0,0.192,0.203,0.094,43.52,-63.81,0
2298402.0,-0.086,-0.333,-0.284,-48.33,163.16,0
2298407.0,0.17,0.301,-0.124,55.06,-125.97,0
2298412.0,-0.131,-0.285,-0.2,-50.01,146.71,0
2298417.0,0.067,0.268,0.166,56.18,-22.04,0
2298422.0,-0.361,-0.276,-0.26,-31.79,125.74,0
2298427.0,-0.098,0.375,-0.059,73.07,121.03,0
2298432.0,-0.098,-0.245,-0.1,-60.29,135.49,0
2298437.0,0.051,0.203,0.226,41.23,-12.6,0
2298442.0,-0.098,-0.302,-0.1,-65.2,135.49,0
2298447.0,0.024,0.258,0.09,70.23,-15.11,0
2298452.0,-0.107,-0.262,-0.219,-46.96,153.89,0
2298457.0,0.034,0.268,0.14,61.74,-13.57,0
2298462.0,-0.153,-0.46,-0.176,-63.11,139.04,0
2298467.0,0.153,0.351,-0.059,64.93,-111.0,0
2298472.0,0.0,-0.293,-0.203,-55.31,-179.93,0
2298477.0,0.127,0.351,0.034,69.45,-74.83,0
2298482.0,0.065,-0.388,-0.143,-68.02,-155.55,0
2298487.0,-0.024,0.244,0.07,73.05,18.61,0
2298492.0,0.003,-0.336,-0.241,-54.34,-179.37,0
2298497.0,-0.072,0.371,-0.004,79.05,93.06,0
2298502.0,-0.208,-0.331,0.078,-56.14,69.55,0
2298507.0,-0.127,0.294,0.08,63.0,57.73,0
2298512.0,0.031,-0.283,-0.282,-44.98,-173.64,0
2298517.0,-0.005,0.244,0.128,62.3,2.04,0
2298522.0,0.165,-0.307,0.094,-58.19,-60.31,0
2298527.0,-0.04,0.284,0.106,68.2,20.84,0
2298532.0,-0.031,-0.204,-0.291,-34.88,173.94,0
2298537.0,0.012,0.224,-0.138,58.34,-174.94,0
2298542.0,0.094,-0.379,-0.001,-76.12,-90.88,0
2298547.0,-0.028,0.275,0.286,43.73,5.69,0
2298552.0,0.146,-0.25,-0.205,-44.74,-144.48,0
2298557.0,-0.112,0.248,-0.191,48.32,149.49,0
2298562.0,-0.11,-0.257,-0.102,-59.72,132.86,0
2298567.0,-0.134,0.227,0.398,28.36,18.57,0
2298572.0,-0.05,-0.175,0.092,-59.16,28.56,0
2298577.0,-0.067,0.236,-0.14,56.69,154.54,0
2298582.0,0.027,-0.319,-0.238,-53.05,-173.64,0
2298587.0,0.01,0.177,0.087,63.59,-6.43,0
2298592.0,0.221,-0.199,-0.138,-37.46,-122.02,0
2298597.0,-0.036,0.299,0.046,78.91,37.53,0
2298602.0,0.118,-0.273,0.099,-60.65,-49.86,0
2298607.0,-0.076,0.16,0.102,51.53,36.96,0
2298612.0,-0.021,-0.317,-0.181,-60.07,173.29,0
2298617.0,-0.052,0.272,0.2,52.84,14.71,0
2298622.0,0.106,-0.137,0.279,-24.69,-20.75,0
2298627.0,-0.131,0.155,-0.059,47.11,114.14,0
2298632.0,0.11,-0.278,-0.406,-33.48,-164.79,0
2298637.0,0.01,0.203,0.188,47.2,-2.99,0
2298642.0,0.204,-0.127,0.161,-26.12,-51.62,0
2298647.0,0.005,0.11,-0.193,29.58,-178.51,0
2298652.0,0.209,-0.161,-0.047,-36.98,-102.68,0
2298657.0,-0.028,0.157,0.272,29.98,5.99,0
2298662.0,0.074,-0.18,-0.03,-65.96,-112.05,0
2298667.0,-0.234,0.179,-0.219,29.15,133.1,0
2298672.0,0.11,-0.163,0.142,-42.22,-37.81,0
2298677.0,-0.119,0.205,0.307,31.91,21.24,0
2298682.0,0.17,-0.183,0.025,-46.69,-81.68,0
2298687.0,-0.043,0.047,0.032,41.48,53.18,0
2298692.0,0.319,-0.08,0.197,-11.99,-58.24,0
2298697.0,-0.084,0.186,0.025,64.91,73.41,0
2298702.0,0.173,-0.187,-0.212,-34.41,-140.86,0
2298707.0,-0.177,0.208,0.173,39.99,45.59,0
2298712.0,0.137,-0.154,0.171,-35.09,-38.65,0
2298717.0,-0.203,-0.032,-0.188,-6.53,132.79,0
2298722.0,0.223,-0.046,-0.124,-10.24,-119.0,0
2298727.0,-0.103,0.102,0.226,22.41,24.44,0
2298732.0,0.29,-0.02,0.058,-3.81,-78.61,0
2298737.0,-0.112,-0.048,-0.159,-13.95,144.85,0
2298742.0,0.338,-0.039,0.023,-6.55,-86.19,0
2298747.0,-0.182,0.069,0.166,15.63,47.56,0
2298752.0,0.249,0.069,0.058,15.06,-76.81,0
2298757.0,-0.179,-0.013,0.044,-3.88,76.2,0
2298762.0,0.283,-0.257,-0.119,-39.93,-112.78,0
2298767.0,-0.208,-0.072,0.164,-15.29,51.79,0
2298772.0,0.292,-0.008,-0.061,-1.48,-101.84,0
2298777.0,-0.115,-0.063,0.082,-23.98,54.32,0
2298782.0,0.314,0.11,0.24,15.49,-52.55,0
2298787.0,-0.225,-0.032,-0.102,-7.31,114.4,0
2298792.0,0.343,0.064,-0.001,10.59,-90.24,0
2298797.0,-0.234,-0.053,0.157,-10.69,56.26,0
2298802.0,-0.208,-0.216,-0.229,-34.93,137.73,0
2298807.0,-0.246,-0.233,-0.186,-37.03,127.02,0
2298812.0,0.395,0.107,-0.315,11.97,-128.56,0
2298817.0,-0.242,-0.094,0.032,-21.08,82.44,0
2298822.0,0.422,0.196,-0.207,22.62,-116.19,0
2298827.0,-0.282,-0.065,0.106,-12.2,69.36,0
2298832.0,0.268,0.124,-0.164,21.5,-121.46,0
2298837.0,-0.335,-0.266,-0.037,-38.32,96.36,0
2298842.0,-0.187,-0.25,-0.116,-48.62,121.96,0
2298847.0,-0.215,0.275,0.204,42.79,46.47,0
2298852.0,0.314,-0.285,-0.219,-36.71,-124.94,0
2298857.0,-0.311,0.222,0.018,35.49,86.74,0
2298862.0,0.232,-0.35,0.006,-56.41,-88.58,0
2298867.0,-0.313,0.414,0.377,40.16,39.75,0
2298872.0,0.29,-0.317,-0.26,-39.11,-131.89,0
2298877.0,-0.299,0.251,-0.21,34.48,125.04,0
2298882.0,-0.266,-0.23,-0.179,-35.75,123.93,0
2298887.0,-0.22,0.217,-0.016,44.57,94.11,0
2298892.0,-0.239,-0.228,-0.301,-30.69,141.5,0
2298897.0,0.058,0.313,0.063,74.71,-42.39,0
2298902.0,-0.179,-0.317,-0.219,-48.18,140.73,0
2298907.0,0.07,0.227,-0.14,55.38,-153.59,0
2298912.0,-0.155,-0.259,-0.238,-42.32,146.91,0
2298917.0,0.132,0.205,0.106,50.48,-51.14,0
2298922.0,-0.194,-0.321,0.013,-58.87,86.18,0
2298927.0,0.034,0.332,-0.114,70.32,-163.5,0
2298932.0,-0.206,-0.331,-0.361,-38.57,150.3,0
2298937.0,0.051,0.313,0.066,75.19,-37.6,0
2298942.0,-0.282,-0.379,-0.198,-47.71,125.01,0
2298947.0,0.024,0.339,0.08,76.17,-16.82,0
2298952.0,-0.146,-0.297,-0.04,-63.07,105.25,0
2298957.0,0.118,0.318,0.008,69.66,-86.04,0
2298962.0,-0.136,-0.381,-0.262,-52.21,152.56,0
2298967.0,0.187,0.258,0.092,51.08,-63.82,0
2298972.0,-0.072,-0.23,-0.143,-55.28,153.36,0
2298977.0,0.07,0.244,0.135,58.05,-27.29,0
2298982.0,-0.141,-0.247,-0.124,-52.82,131.22,0
2298987.0,0.058,0.246,0.087,66.98,-33.51,0
2298992.0,-0.23,-0.264,-0.267,-36.84,139.33,0
2298997.0,-0.007,0.265,-0.009,87.61,141.14,0
2299002.0,-0.146,-0.415,-0.04,-69.98,105.25,0
2299007.0,0.034,0.359,0.133,69.11,-14.28,0
2299012.0,0.003,-0.386,-0.195,-63.15,-179.23,0
2299017.0,0.012,0.342,-0.018,86.33,-146.14,0
2299022.0,-0.045,-0.312,-0.193,-57.56,166.8,0
2299027.0,-0.055,0.258,-0.025,76.82,114.84,0
2299032.0,-0.148,-0.163,-0.013,-47.67,95.17,0
2299037.0,-0.033,0.289,0.137,63.94,13.61,0
2299042.0,-0.064,-0.403,-0.191,-63.46,161.33,0
2299047.0,-0.107,0.203,-0.15,47.73,144.35,0
2299052.0,-0.079,-0.262,-0.181,-52.95,156.48,0
2299057.0,0.043,0.406,0.207,62.53,-11.83,0
2299062.0,0.082,-0.384,-0.042,-76.53,-117.3,0
2299067.0,0.029,0.205,0.042,76.12,-34.81,0
2299072.0,0.144,-0.379,-0.143,-61.86,-134.76,0
2299077.0,0.182,0.311,0.166,51.56,-47.64,0
2299082.0,0.067,-0.245,-0.059,-69.93,-131.2,0
2299087.0,-0.172,0.234,-0.064,51.9,110.3,0
2299092.0,-0.002,-0.345,-0.047,-82.25,177.37,0
2299097.0,-0.081,0.248,0.243,44.14,18.49,0
2299102.0,0.007,-0.183,0.116,-57.54,-3.66,0
2299107.0,-0.194,0.275,0.03,54.51,81.29,0
2299112.0,0.118,-0.269,-0.095,-60.66,-128.89,0
2299117.0,0.051,0.136,0.13,44.21,-21.2,0
2299122.0,0.189,-0.171,0.085,-39.42,-65.89,0
2299127.0,0.024,0.272,0.008,84.65,-71.39,0
2299132.0,0.084,-0.204,-0.181,-45.64,-155.1,0
2299137.0,0.01,0.148,0.092,57.99,-6.09,0
2299142.0,0.024,-0.185,0.044,-74.8,-28.76,0
2299147.0,-0.526,0.145,0.066,15.33,82.9,0
2299152.0,0.268,-0.187,0.121,-32.48,-65.79,0
2299157.0,-0.244,0.172,0.046,34.68,79.22,0
2299162.0,0.11,-0.211,-0.162,-47.16,-145.71,0
2299167.0,-0.076,0.201,-0.167,47.57,155.38,0
2299172.0,0.225,-0.123,-0.219,-21.31,-134.23,0
2299177.0,-0.043,0.134,-0.078,56.3,151.23,0
2299182.0,0.139,-0.235,-0.057,-57.45,-112.11,0
2299187.0,-0.263,0.162,0.123,29.19,64.93,0
2299192.0,-0.028,-0.147,0.102,-54.28,15.68,0
2299197.0,-0.294,0.224,0.085,36.25,73.93,0
2299202.0,0.077,-0.163,0.061,-59.04,-51.65,0
2299207.0,-0.122,0.138,0.092,42.18,52.97,0
2299212.0,0.228,-0.197,-0.138,-36.49,-121.2,0
2299217.0,-0.007,0.038,-0.071,27.93,174.4,0
2299222.0,0.319,0.014,0.063,2.43,-78.78,0
2299227.0,-0.012,0.167,0.003,85.82,74.05,0
2299232.0,-0.254,-0.137,-0.114,-26.24,114.2,0
2299237.0,-0.084,0.071,0.252,15.01,18.32,0
2299242.0,0.352,-0.118,0.293,-14.43,-50.24,0
2299247.0,-0.457,0.22,0.078,25.36,80.37,0
2299252.0,0.077,-0.209,-0.191,-45.47,-158.04,0
2299257.0,-0.237,0.098,0.09,21.08,69.29,0
2299262.0,0.209,-0.032,0.351,-4.44,-30.75,0
2299267.0,-0.012,0.04,-0.028,53.09,157.1,0
2299272.0,0.383,-0.115,-0.215,-14.73,-119.23,0
2299277.0,-0.021,0.057,0.015,65.24,54.28,0
2299282.0,0.434,-0.063,0.264,-7.05,-58.63,0
2299287.0,-0.17,0.023,0.061,7.39,70.29,0
2299292.0,0.244,0.083,0.082,17.88,-71.38,0
2299297.0,-0.215,-0.025,0.113,-5.75,62.2,0
2299302.0,0.225,-0.053,0.066,-12.78,-73.77,0
2299307.0,-0.333,-0.123,0.113,-19.24,71.16,0
2299312.0,0.268,0.105,0.315,14.22,-40.47,0
2299317.0,-0.191,-0.12,0.142,-26.77,53.37,0
2299322.0,0.338,0.112,-0.317,13.58,-133.22,0
2299327.0,-0.103,-0.041,0.161,-12.17,32.48,0
2299332.0,0.467,0.145,0.157,16.45,-71.47,0
2299337.0,-0.179,-0.307,-0.164,-51.62,132.49,0
2299342.0,0.47,0.244,0.128,26.6,-74.77,0
2299347.0,-0.134,-0.192,0.255,-33.73,27.72,0
2299352.0,0.3,0.088,0.078,15.88,-75.48,0
2299357.0,-0.242,-0.115,-0.04,-25.25,99.34,0
2299362.0,0.309,-0.333,-0.15,-44.14,-115.87,0
2299367.0,-0.299,-0.125,0.013,-22.68,87.52,0
2299372.0,0.345,0.131,-0.049,20.62,-98.14,0
2299377.0,-0.325,-0.132,0.195,-19.22,59.08,0
2299382.0,0.352,0.234,0.288,27.22,-50.7,0
2299387.0,-0.191,-0.202,-0.176,-37.79,132.65,0
2299392.0,0.29,0.239,-0.147,36.29,-116.96,0
2299397.0,-0.208,-0.226,0.238,-35.52,41.16,0
2299402.0,-0.182,-0.357,-0.286,-46.49,147.6,0
2299407.0,-0.354,-0.228,-0.042,-32.59,96.79,0
2299412.0,0.422,0.248,0.078,30.09,-79.57,0
2299417.0,-0.431,-0.185,0.061,-23.03,81.96,0
2299422.0,0.369,0.349,-0.373,33.65,-135.28,0
2299427.0,-0.268,-0.19,0.164,-31.14,58.56,0
2299432.0,0.323,0.284,0.018,41.28,-86.86,0
2299437.0,-0.299,-0.412,0.027,-53.94,84.78,0
2299442.0,-0.246,-0.386,-0.291,-45.35,139.76,0
2299447.0,-0.318,0.323,0.097,44.13,73.09,0
2299452.0,0.395,-0.238,-0.119,-29.93,-106.72,0
2299457.0,-0.313,0.268,-0.025,40.4,94.63,0
2299462.0,0.498,-0.391,-0.226,-35.53,-114.45,0
2299467.0,-0.325,0.284,0.109,39.66,71.53,0
2299472.0,0.376,-0.192,-0.116,-26.01,-107.19,0
2299477.0,-0.309,0.208,-0.15,31.2,115.9,0
2299482.0,-0.318,-0.321,-0.31,-35.87,134.28,0
2299487.0,0.048,0.315,0.212,55.47,-12.81,0
2299492.0,-0.028,-0.24,-0.016,-82.27,119.01,0
2299497.0,0.027,0.332,-0.114,70.6,-166.87,0
2299502.0,-0.052,-0.424,-0.315,-53.03,170.55,0
2299507.0,0.043,0.287,0.288,44.53,-8.55,0
2299512.0,-0.067,-0.168,0.075,-59.12,41.62,0
2299517.0,-0.069,0.311,-0.078,71.44,138.44,0
2299522.0,-0.155,-0.453,-0.107,-67.41,124.5,0
2299527.0,-0.012,0.241,0.13,61.54,5.15,0
2299532.0,-0.062,-0.132,-0.231,-28.91,164.99,0
2299537.0,0.053,0.371,-0.112,71.57,-154.63,0
2299542.0,0.015,-0.283,-0.073,-75.22,-168.73,0
2299547.0,0.029,0.263,0.219,49.97,-7.54,0
2299552.0,-0.052,-0.458,-0.186,-67.14,164.24,0
2299557.0,0.003,0.327,-0.188,60.11,-179.2,0
2299562.0,-0.084,-0.384,-0.186,-62.03,155.78,0
2299567.0,0.077,0.351,0.219,56.57,-19.35,0
2299572.0,0.015,-0.276,-0.073,-74.85,-168.73,0
2299577.0,0.06,0.308,0.015,78.63,-75.69,0
2299582.0,-0.081,-0.362,-0.2,-59.18,157.93,0
2299587.0,-0.093,0.203,0.176,45.58,27.92,0
2299592.0,-0.045,-0.209,-0.016,-77.07,109.25,0
2299597.0,-0.129,0.224,0.061,57.57,64.77,0
2299602.0,-0.002,-0.171,-0.04,-76.86,176.9,0
2299607.0,0.017,0.193,0.13,55.81,-7.44,0
2299612.0,0.005,-0.343,-0.231,-56.0,-178.75,0
2299617.0,-0.067,0.236,-0.179,51.12,159.49,0
2299622.0,0.079,-0.214,0.042,-67.26,-62.27,0
2299627.0,0.048,0.304,0.2,55.91,-13.55,0
2299632.0,-0.06,-0.374,-0.399,-42.85,171.5,0
2299637.0,-0.088,0.181,-0.131,48.98,145.95,0
2299642.0,0.074,-0.266,0.291,-41.59,-14.37,0
2299647.0,-0.06,0.392,0.269,54.89,12.49,0
2299652.0,0.012,-0.338,-0.325,-46.15,-177.85,0
2299657.0,-0.048,0.174,-0.028,72.43,120.24,0
2299662.0,0.165,-0.288,0.341,-37.22,-25.89,0
2299667.0,-0.014,0.349,0.367,43.52,2.2,0
2299672.0,0.067,-0.252,-0.231,-46.29,-163.78,0
2299677.0,-0.096,0.169,-0.114,48.73,140.03,0
2299682.0,0.161,-0.271,0.104,-54.79,-57.11,0
2299687.0,-0.069,0.27,0.13,61.35,27.98,0
2299692.0,0.189,-0.18,-0.128,-38.22,-124.12,0
2299697.0,-0.146,0.179,-0.028,50.34,100.78,0
2299702.0,0.28,-0.154,0.102,-27.28,-70.1,0
2299707.0,-0.086,0.119,0.209,27.78,22.33,0
2299712.0,0.175,-0.084,0.025,-25.51,-81.9,0
2299717.0,-0.131,0.179,-0.107,46.59,129.09,0
2299722.0,0.139,-0.223,-0.152,-47.26,-137.59,0
2299727.0,-0.189,0.081,0.075,21.68,68.3,0
2299732.0,0.199,-0.082,0.207,-15.94,-43.88,0
2299737.0,-0.081,0.256,0.209,48.72,21.2,0
2299742.0,0.175,-0.192,-0.222,-34.22,-141.71,0
2299747.0,-0.098,0.023,-0.15,7.44,146.84,0
2299752.0,0.206,-0.101,0.207,-19.1,-44.9,0
2299757.0,-0.215,0.095,0.116,21.28,61.7,0
2299762.0,0.249,-0.005,-0.143,-1.07,-119.79,0
2299767.0,-0.134,-0.039,0.192,-9.41,34.81,0
2299772.0,0.297,-0.075,0.329,-9.58,-42.09,0
2299777.0,-0.093,0.107,-0.133,33.41,145.02,0
2299782.0,0.204,-0.036,-0.064,-9.7,-107.36,0
2299787.0,-0.136,-0.025,0.422,-3.16,17.88,0
2299792.0,0.292,-0.166,0.133,-27.31,-65.59,0
2299797.0,-0.232,0.047,-0.109,10.46,115.2,0
2299802.0,0.431,0.184,0.396,17.43,-47.44,0
2299807.0,-0.155,0.095,0.339,14.34,24.65,0
2299812.0,0.314,-0.202,-0.169,-29.5,-118.3,0
2299817.0,-0.189,-0.151,-0.226,-27.17,140.17,0
2299822.0,0.295,0.136,0.125,22.99,-66.94,0
2299827.0,-0.189,0.043,0.204,8.69,42.73,0
2299832.0,0.182,-0.099,-0.078,-26.48,-113.19,0
2299837.0,-0.273,-0.156,-0.049,-29.4,100.25,0
2299842.0,0.276,0.124,0.142,21.79,-62.7,0
2299847.0,-0.266,0.064,-0.088,12.91,108.26,0
2299852.0,0.316,0.098,0.051,16.94,-80.8,0
2299857.0,-0.184,-0.096,0.269,-16.46,34.38,0
2299862.0,0.41,0.047,0.147,6.21,-70.26,0
2299867.0,-0.189,-0.082,-0.313,-12.65,148.86,0
2299872.0,0.319,0.059,-0.001,10.54,-90.26,0
2299877.0,-0.203,-0.077,0.372,-10.32,28.65,0
2299882.0,0.347,0.124,0.063,19.34,-79.69,0
2299887.0,-0.323,-0.24,-0.341,-27.05,136.59,0
2299892.0,0.323,0.198,0.221,26.82,-55.63,0
2299897.0,-0.34,-0.13,0.226,-17.65,56.37,0
2299902.0,0.326,0.205,-0.049,31.93,-98.61,0
2299907.0,-0.325,-0.247,-0.147,-34.68,114.38,0
2299912.0,0.328,0.205,0.24,26.78,-53.78,0
2299917.0,-0.285,-0.254,0.003,-41.78,89.33,0
2299922.0,0.386,0.189,-0.313,20.8,-129.03,0
2299927.0,-0.189,-0.068,0.188,-14.24,45.18,0
2299932.0,0.491,0.21,0.31,19.9,-57.75,0
2299937.0,-0.203,-0.293,-0.018,-55.11,95.12,0
2299942.0,0.448,0.27,0.128,30.1,-74.07,0
2299947.0,-0.198,-0.187,0.214,-32.69,42.84,0
2299952.0,0.35,0.323,0.181,39.34,-62.7,0
2299957.0,-0.368,-0.384,-0.171,-43.35,114.95,0
2299962.0,0.347,-0.427,-0.061,-50.42,-100.01,0
2299967.0,-0.34,-0.285,0.07,-39.45,78.29,0
2299972.0,0.331,0.323,0.075,43.58,-77.19,0
2299977.0,-0.287,-0.353,-0.095,-49.38,108.28,0
2299982.0,0.374,0.282,0.085,36.34,-77.22,0
2299987.0,-0.268,-0.209,-0.095,-36.31,109.49,0
2299992.0,0.479,0.406,-0.162,38.79,-108.67,0
2299997.0,-0.277,-0.338,0.073,-49.69,75.3,0
2300002.0,-0.325,-0.326,-0.296,-36.56,132.29,0
2300007.0,-0.455,-0.348,-0.03,-37.35,93.8,0
2300012.0,0.335,0.394,0.018,49.59,-86.98,0
2300017.0,-0.419,-0.309,0.293,-31.19,55.01,0
2300022.0,0.307,0.342,-0.191,43.43,-121.86,0
2300027.0,-0.282,-0.343,-0.104,-48.73,110.29,0
2300032.0,0.465,-0.305,-0.183,-31.37,-111.54,0
2300037.0,-0.218,0.27,0.018,51.04,85.35,0
2300042.0,0.086,-0.247,-0.217,-46.63,-158.27,0
2300047.0,-0.282,0.287,0.192,40.01,55.71,0
2300052.0,0.386,-0.206,-0.114,-27.17,-106.46,0
2300057.0,-0.507,0.134,-0.174,13.98,108.91,0
2300062.0,0.283,-0.25,-0.155,-37.75,-118.68,0
2300067.0,-0.347,0.28,0.315,30.83,47.8,0
2300072.0,-0.184,-0.23,-0.025,-51.11,97.85,0
2300077.0,-0.019,0.165,-0.009,82.8,114.5,0
2300082.0,0.041,-0.317,-0.238,-52.61,-170.26,0
2300087.0,0.103,0.277,0.075,65.27,-53.93,0
2300092.0,0.046,-0.151,-0.009,-72.91,-100.67,0
2300097.0,0.015,0.198,-0.207,43.63,-175.97,0
2300102.0,0.019,-0.355,-0.313,-48.56,-176.45,0
2300107.0,-0.062,0.253,0.109,63.7,29.7,0
2300112.0,-0.036,-0.235,0.051,-75.13,34.85,0
2300117.0,-0.103,0.304,0.063,68.33,58.39,0
2300122.0,-0.151,-0.307,-0.171,-53.38,138.7,0
2300127.0,-0.158,0.277,0.037,59.69,76.85,0
2300132.0,0.074,-0.214,0.044,-67.95,-59.39,0
2300137.0,0.113,0.32,0.216,52.69,-27.52,0
2300142.0,0.062,-0.353,-0.265,-52.34,-166.72,0
2300147.0,0.06,0.251,-0.198,50.51,-163.1,0
2300152.0,0.053,-0.314,-0.042,-77.85,-128.53,0
2300157.0,-0.036,0.337,0.312,47.0,6.52,0
2300162.0,0.168,-0.329,-0.315,-42.63,-151.96,0
2300167.0,-0.153,0.248,-0.174,47.01,138.65,0
2300172.0,-0.031,-0.187,0.099,-61.0,17.31,0
2300177.0,0.079,0.177,0.362,25.45,-12.33,0
2300182.0,0.096,-0.25,-0.09,-62.19,-133.16,0
2300187.0,0.098,0.22,-0.083,59.65,-130.09,0
2300192.0,0.292,-0.13,0.061,-23.5,-78.25,0
2300197.0,-0.072,0.138,0.145,40.6,26.34,0
2300202.0,0.022,-0.24,-0.181,-52.78,-173.14,0
2300207.0,-0.282,0.155,-0.025,28.68,95.14,0
2300212.0,0.01,-0.13,0.106,-50.57,-5.28,0
2300217.0,-0.086,0.165,0.305,27.45,15.74,0
2300222.0,0.134,-0.187,-0.021,-54.04,-98.72,0
2300227.0,-0.057,0.16,-0.018,69.41,107.64,0
2300232.0,0.211,-0.159,-0.147,-31.64,-124.96,0
2300237.0,-0.04,0.064,-0.013,56.37,108.33,0
2300242.0,0.247,-0.094,0.054,-20.4,-77.74,0
2300247.0,-0.024,0.258,0.073,73.48,18.04,0
2300252.0,0.146,-0.247,-0.112,-53.34,-127.33,0
2300257.0,-0.11,0.045,0.08,18.29,53.96,0
2300262.0,0.146,-0.135,0.322,-20.85,-24.45,0
2300267.0,-0.206,0.179,0.252,28.81,39.18,0
2300272.0,0.11,-0.113,-0.009,-45.61,-94.46,0
2300277.0,-0.129,0.062,-0.136,18.25,136.4,0
2300282.0,0.367,-0.104,0.145,-14.72,-68.47,0
2300287.0,0.051,0.078,0.226,18.71,-12.6,0
2300292.0,0.331,-0.063,0.008,-10.75,-88.59,0
2300297.0,-0.103,0.026,-0.116,9.43,138.56,0
2300302.0,0.173,-0.127,-0.076,-34.07,-113.67,0
2300307.0,-0.237,-0.032,0.02,-7.59,85.15,0
2300312.0,0.122,-0.01,0.102,-3.65,-50.32,0
2300317.0,-0.294,0.191,0.274,25.41,47.05,0
2300322.0,0.242,-0.039,0.097,-8.48,-68.22,0
2300327.0,-0.201,-0.175,-0.159,-34.36,128.44,0
2300332.0,0.264,-0.025,0.018,-5.3,-86.15,0
2300337.0,-0.084,0.028,0.164,8.71,27.03,0
2300342.0,0.417,0.047,0.09,6.33,-77.88,0
2300347.0,-0.117,-0.156,0.19,-34.97,31.63,0
2300352.0,0.477,-0.025,0.104,-2.87,-77.7,0
2300357.0,-0.11,0.023,-0.179,6.36,148.4,0
2300362.0,0.323,-0.005,0.204,-0.8,-57.7,0
2300367.0,-0.215,-0.005,0.372,-0.71,30.05,0
2300372.0,0.553,-0.266,0.073,-25.51,-82.51,0
2300377.0,-0.316,0.117,-0.193,17.51,121.43,0
2300382.0,0.137,0.117,0.046,38.96,-71.23,0
2300387.0,-0.177,-0.156,0.097,-37.76,61.34,0
2300392.0,0.47,0.043,-0.001,5.18,-90.18,0
2300397.0,-0.163,-0.23,0.178,-43.69,42.38,0
2300402.0,0.465,0.229,0.377,20.97,-50.96,0
2300407.0,-0.201,-0.175,-0.009,-41.09,92.46,0
2300412.0,0.359,0.107,0.003,16.61,-89.47,0
2300417.0,-0.261,-0.099,0.128,-18.78,63.88,0
2300422.0,0.364,0.224,0.195,28.53,-61.85,0
2300427.0,-0.328,-0.211,-0.042,-32.59,97.33,0
2300432.0,0.335,0.047,0.058,7.91,-80.12,0
2300437.0,-0.311,-0.226,0.125,-33.93,68.03,0
2300442.0,0.458,0.315,0.128,33.59,-74.39,0
2300447.0,-0.215,-0.216,-0.071,-43.63,108.22,0
2300452.0,0.46,0.232,0.204,24.72,-66.03,0
2300457.0,-0.208,-0.317,0.123,-52.64,59.4,0
2300462.0,0.465,0.217,0.07,24.81,-81.39,0
2300467.0,-0.304,-0.197,-0.073,-32.21,103.56,0
2300472.0,0.259,0.342,0.109,50.61,-67.22,0
2300477.0,-0.364,-0.357,0.125,-42.88,70.97,0
2300482.0,0.352,0.323,-0.176,39.33,-116.58,0
2300487.0,-0.361,-0.297,-0.04,-39.3,96.28,0
2300492.0,0.343,0.351,0.061,45.28,-79.93,0
2300497.0,-0.318,-0.429,-0.004,-53.44,90.69,0
2300502.0,0.462,0.337,0.118,35.23,-75.65,0
2300507.0,-0.261,-0.281,0.056,-46.47,77.87,0
2300512.0,0.419,0.325,0.032,37.71,-85.62,0
2300517.0,-0.266,-0.305,-0.049,-48.44,100.52,0
2300522.0,0.417,0.282,-0.159,32.28,-110.93,0
2300527.0,-0.345,-0.281,0.08,-38.44,76.93,0
2300532.0,0.359,0.366,0.171,42.59,-64.56,0
2300537.0,-0.416,-0.386,-0.076,-42.37,100.3,0
2300542.0,0.331,0.284,0.034,40.54,-84.05,0
2300547.0,-0.366,-0.317,-0.037,-40.71,95.83,0
2300552.0,0.395,0.418,0.097,45.8,-76.25,0
2300557.0,-0.354,-0.362,0.003,-45.64,89.46,0
2300562.0,-0.069,-0.204,-0.205,-43.33,161.34,0
2300567.0,-0.246,-0.501,-0.181,-58.61,126.3,0
2300572.0,0.465,0.509,-0.179,45.66,-111.02,0
2300577.0,-0.27,-0.46,0.159,-55.73,59.54,0
2300582.0,0.34,0.399,-0.203,45.24,-120.77,0
2300587.0,-0.491,-0.329,-0.059,-33.62,96.85,0
2300592.0,0.379,0.457,-0.08,49.73,-102.0,0
2300597.0,-0.553,-0.408,0.303,-32.89,61.3,0
2300602.0,-0.038,-0.345,0.099,-72.91,21.01,0
2300607.0,-0.287,-0.29,-0.159,-41.47,119.05,0
2300612.0,0.556,0.354,-0.435,26.63,-128.04,0
2300617.0,-0.301,0.239,-0.068,37.69,102.8,0
2300622.0,0.575,-0.242,-0.083,-22.65,-98.2,0
2300627.0,-0.33,0.32,0.145,41.62,66.35,0
2300632.0,0.446,-0.259,-0.126,-29.23,-105.78,0
2300637.0,-0.639,0.208,-0.09,17.84,98.02,0
2300642.0,-0.153,-0.154,0.231,-29.05,33.54,0
2300647.0,-0.469,0.339,0.374,29.49,51.4,0
2300652.0,0.201,-0.446,-0.38,-46.05,-152.06,0
2300657.0,-0.076,0.153,-0.267,28.78,164.05,0
2300662.0,0.225,-0.247,-0.006,-47.64,-91.58,0
2300667.0,0.132,0.339,0.19,55.72,-34.76,0
2300672.0,0.24,-0.266,-0.133,-44.17,-119.05,0
2300677.0,0.036,0.217,0.154,53.92,-13.2,0
2300682.0,0.065,-0.369,-0.112,-70.73,-149.82,0
2300687.0,-0.249,0.246,-0.203,37.49,129.15,0
2300692.0,-0.064,-0.168,0.075,-59.51,40.59,0
2300697.0,-0.115,0.265,0.516,26.66,12.54,0
2300702.0,0.039,-0.288,0.001,-82.37,-88.58,0
2300707.0,-0.086,0.129,-0.243,26.52,160.54,0
2300712.0,0.23,-0.12,-0.011,-27.57,-92.74,0
2300717.0,0.024,0.172,0.379,24.33,-3.65,0
2300722.0,0.206,-0.19,-0.143,-37.11,-124.69,0
2300727.0,-0.17,0.088,-0.298,14.38,150.36,0
2300732.0,0.079,-0.156,-0.181,-38.32,-156.35,0
2300737.0,-0.158,0.287,0.125,54.89,51.51,0
2300742.0,-0.024,-0.166,-0.037,-75.06,147.6,0
2300747.0,-0.275,0.157,0.061,29.2,77.53,0
2300752.0,0.163,-0.218,0.068,-51.04,-67.36,0
2300757.0,-0.096,0.138,0.003,55.35,87.99,0
2300762.0,0.13,-0.183,-0.066,-51.46,-117.03,0
2300767.0,0.012,0.205,0.185,47.87,-3.77,0
2300772.0,0.326,-0.214,0.135,-31.2,-67.49,0
2300777.0,-0.043,0.167,-0.009,75.33,101.37,0
2300782.0,0.163,-0.147,-0.136,-34.66,-129.73,0
2300787.0,-0.074,0.201,0.248,37.82,16.64,0
2300792.0,0.141,-0.115,0.274,-20.54,-27.32,0
2300797.0,-0.294,0.071,-0.052,13.42,99.97,0
2300802.0,0.175,-0.036,-0.064,-11.08,-110.0,0
2300807.0,-0.163,0.038,0.135,10.13,50.29,0
2300812.0,0.254,-0.094,0.111,-18.72,-66.38,0
2300817.0,-0.026,0.059,0.046,48.06,29.33,0
2300822.0,0.285,-0.096,0.058,-18.31,-78.42,0
2300827.0,-0.028,0.083,0.061,51.1,25.1,0
2300832.0,0.261,-0.089,0.02,-18.79,-85.6,0
2300837.0,-0.074,0.095,0.149,29.73,26.34,0
2300842.0,0.402,0.016,0.262,1.93,-56.94,0
2300847.0,-0.074,-0.039,0.173,-11.65,23.11,0
2300852.0,0.311,-0.056,0.109,-9.57,-70.76,0
2300857.0,-0.27,-0.022,-0.001,-4.68,90.3,0
2300862.0,0.158,0.11,0.03,34.24,-79.37,0
2300867.0,-0.251,0.04,0.121,8.2,64.34,0
2300872.0,0.221,-0.02,0.178,-3.98,-51.07,0
2300877.0,-0.198,-0.039,0.085,-10.21,66.88,0
2300882.0,0.46,0.028,-0.131,3.37,-105.87,0
2300887.0,-0.107,-0.017,-0.078,-7.43,125.98,0
2300892.0,0.489,0.038,0.173,4.16,-70.47,0
2300897.0,-0.23,-0.099,0.121,-20.84,62.28,0
2300902.0,0.292,0.122,0.14,20.56,-64.44,0
2300907.0,-0.292,-0.199,0.08,-33.37,74.68,0
2300912.0,0.266,0.189,0.161,31.22,-58.76,0
2300917.0,-0.261,-0.154,0.307,-20.88,40.3,0
2300922.0,0.448,0.205,0.394,19.0,-48.7,0
2300927.0,-0.136,-0.125,0.018,-42.31,82.59,0
2300932.0,0.426,0.019,-0.272,2.11,-122.53,0
2300937.0,-0.103,-0.12,-0.119,-37.45,139.14,0
2300942.0,0.501,0.234,0.394,20.18,-51.82,0
2300947.0,-0.232,-0.18,0.087,-36.01,69.41,0
2300952.0,0.347,0.09,-0.059,14.39,-99.62,0
2300957.0,-0.287,-0.273,0.159,-39.81,61.02,0
2300962.0,0.446,0.308,0.449,25.99,-44.8,0
2300967.0,-0.328,-0.068,0.116,-11.0,70.53,0
2300972.0,0.503,0.275,0.137,27.79,-74.72,0
2300977.0,-0.301,-0.355,0.001,-49.66,89.82,0
2300982.0,0.52,0.224,0.106,22.94,-78.44,0
2300987.0,-0.021,-0.271,-0.068,-75.18,162.71,0
2300992.0,0.335,0.359,0.26,40.21,-52.27,0
2300997.0,-0.28,-0.25,-0.033,-41.53,96.64,0
2301002.0,0.252,0.208,0.006,39.53,-88.69,0
2301007.0,-0.333,-0.228,0.046,-34.18,82.05,0
2301012.0,0.28,0.304,0.106,45.35,-69.24,0
2301017.0,-0.318,-0.23,-0.107,-34.47,108.55,0
2301022.0,0.357,0.217,0.039,31.18,-83.72,0
2301027.0,-0.316,-0.329,0.104,-44.66,71.79,0
2301032.0,0.414,0.39,0.329,36.37,-51.56,0
2301037.0,-0.289,-0.238,0.104,-37.69,70.25,0
2301042.0,0.431,0.313,-0.066,35.67,-98.71,0
2301047.0,-0.277,-0.374,-0.274,-43.79,134.68,0
2301052.0,0.467,0.318,0.09,33.76,-79.15,0
2301057.0,-0.246,-0.343,-0.021,-54.21,94.78,0
2301062.0,0.426,0.387,0.051,42.04,-83.15,0
2301067.0,-0.361,-0.355,0.006,-44.49,89.09,0
2301072.0,0.323,0.414,0.276,44.2,-49.5,0
2301077.0,-0.483,-0.379,0.042,-37.98,85.07,0
2301082.0,0.328,0.404,-0.088,49.94,-104.95,0
2301087.0,-0.474,-0.369,-0.006,-37.93,90.75,0
2301092.0,0.417,0.385,0.109,41.78,-75.38,0
2301097.0,-0.352,-0.343,-0.145,-42.03,112.42,0
2301102.0,0.477,0.459,0.181,42.01,-69.26,0
2301107.0,-0.299,-0.379,-0.037,-51.5,97.12,0
2301112.0,0.58,0.404,0.003,34.88,-89.67,0
2301117.0,-0.23,-0.472,-0.138,-60.44,120.99,0
2301122.0,0.417,-0.343,-0.198,-36.62,-115.38,0
2301127.0,-0.359,-0.424,0.023,-49.72,86.41,0
2301132.0,0.319,0.493,0.243,50.88,-52.7,0
2301137.0,-0.45,-0.472,0.09,-45.83,78.74,0
2301142.0,0.309,0.414,0.173,49.41,-60.72,0
2301147.0,-0.28,-0.326,-0.112,-47.27,111.73,0
2301152.0,0.529,0.335,0.157,31.22,-73.52,0
2301157.0,-0.239,-0.364,-0.102,-54.5,113.09,0
2301162.0,0.034,-0.408,-0.274,-55.85,-172.99,0
2301167.0,-0.287,-0.326,0.032,-48.47,83.62,0
2301172.0,0.429,0.385,-0.083,41.39,-100.93,0
2301177.0,-0.541,-0.376,0.078,-34.57,81.84,0
2301182.0,0.23,0.394,0.03,59.54,-82.65,0
2301187.0,-0.443,-0.357,0.214,-36.0,64.2,0
2301192.0,0.412,0.464,-0.078,47.89,-100.73,0
2301197.0,-0.39,-0.458,-0.001,-49.57,90.21,0
2301202.0,0.163,-0.266,-0.207,-45.28,-141.82,0
2301207.0,-0.27,0.181,-0.071,32.99,104.69,0
2301212.0,0.525,-0.319,-0.049,-31.19,-95.37,0
2301217.0,-0.304,0.241,-0.001,38.45,90.27,0
2301222.0,0.225,-0.266,-0.155,-44.26,-124.47,0
2301227.0,-0.412,0.167,0.133,21.12,72.14,0
2301232.0,0.3,-0.178,0.078,-29.87,-75.48,0
2301237.0,-0.57,0.27,-0.042,25.3,94.23,0
2301242.0,0.094,-0.324,-0.104,-66.58,-138.11,0
2301247.0,-0.017,0.162,0.192,40.02,4.91,0
2301252.0,0.213,-0.171,-0.095,-36.15,-113.96,0
2301257.0,-0.072,0.256,-0.337,36.6,167.99,0
2301262.0,0.199,-0.269,-0.193,-44.11,-134.12,0
2301267.0,-0.127,0.215,0.389,27.73,18.04,0
2301272.0,0.065,-0.137,0.178,-35.86,-20.01,0
2301277.0,-0.313,0.086,-0.282,11.49,131.94,0
2301282.0,0.027,-0.13,-0.174,-36.44,-171.31,0
2301287.0,-0.143,0.208,0.286,33.01,26.64,0
2301292.0,0.213,-0.18,0.104,-37.2,-64.03,0
2301297.0,-0.005,0.114,-0.265,23.36,179.02,0
2301302.0,0.297,-0.113,-0.066,-20.38,-102.54,0
2301307.0,-0.045,0.196,0.252,37.37,10.17,0
2301312.0,0.072,-0.235,-0.226,-44.7,-162.35,0
2301317.0,-0.21,0.157,-0.104,33.83,116.38,0
2301322.0,0.127,-0.013,0.346,-1.95,-20.19,0
2301327.0,-0.232,0.201,0.221,32.03,46.36,0
