time_ms,accel_x,accel_y,accel_z,pitch,roll,sync
1706039.0,-0.0,0.002,-0.045,2.42,179.7,0
1706044.0,0.005,0.007,0.01,31.95,-25.04,0
1706049.0,-0.003,-0.01,0.026,-20.69,5.68,0
1706054.0,-0.01,-0.017,0.041,-22.3,13.51,0
1706059.0,-0.007,-0.008,-0.002,-44.67,106.75,0
1706064.0,-0.022,-0.005,0.005,-13.27,77.2,0
1706069.0,0.012,0.011,0.053,11.99,-12.52,0
1706074.0,-0.017,0.007,-0.029,11.4,149.25,0
1706079.0,0.012,0.002,0.007,7.88,-57.96,0
1706084.0,-0.007,-0.027,-0.017,-55.86,155.91,0
1706089.0,-0.003,0.011,-0.014,38.5,169.5,0
1706094.0,-0.0,-0.022,0.017,-52.47,0.81,0
1706099.0,0.002,0.016,0.015,47.95,-8.44,0
1706104.0,0.012,0.009,0.043,11.47,-15.17,0
1706109.0,0.009,0.009,-0.043,11.7,-167.73,0
1706114.0,0.014,0.011,-0.009,34.1,-123.69,0
1706119.0,-0.012,0.009,0.024,18.61,26.87,0
1706124.0,0.007,-0.012,0.012,-41.69,-29.78,0
1706129.0,-0.003,0.014,0.007,60.67,19.73,0
1706134.0,0.007,-0.003,0.029,-5.52,-13.51,0
1706139.0,-0.003,0.011,0.019,30.52,7.76,0
1706144.0,-0.0,0.014,-0.026,27.94,179.48,0
1706149.0,0.019,-0.034,0.015,-54.95,-52.48,0
1706154.0,-0.0,-0.015,0.012,-50.74,1.13,0
1706159.0,-0.0,0.019,-0.055,18.78,179.75,0
1706164.0,-0.024,-0.008,0.007,-16.87,73.11,0
1706169.0,-0.0,0.021,0.017,51.23,0.81,0
1706174.0,-0.007,-0.0,0.01,-2.24,37.32,0
1706179.0,0.005,0.004,-0.002,40.38,-116.15,0
1706184.0,0.014,0.033,0.012,60.6,-49.34,0
1706189.0,0.017,0.014,-0.012,34.36,-125.56,0
1706194.0,0.007,0.002,-0.036,3.01,-169.01,0
1706199.0,-0.019,0.023,-0.009,47.42,115.9,0
1706204.0,-0.027,-0.039,0.003,-55.46,84.51,0
1706209.0,-0.005,-0.003,0.036,-4.51,7.93,0
1706214.0,-0.015,0.009,0.0,31.92,89.37,0
1706219.0,-0.027,-0.015,0.003,-29.07,84.51,0
1706224.0,0.017,0.007,0.026,12.12,-31.94,0
1706229.0,0.005,0.023,0.003,77.46,-60.68,0
1706234.0,-0.012,-0.012,0.003,-44.94,78.18,0
1706239.0,-0.029,-0.01,0.043,-10.93,33.81,0
1706244.0,-0.007,0.016,0.0,65.49,88.76,0
1706249.0,-0.007,-0.005,0.024,-11.8,17.12,0
1706254.0,-0.005,-0.027,-0.012,-64.42,156.94,0
1706259.0,0.019,0.002,0.015,4.59,-52.48,0
1706264.0,-0.036,-0.02,0.01,-27.67,74.93,0
1706269.0,0.009,0.021,0.01,57.37,-43.8,0
1706274.0,0.007,0.016,0.015,45.32,-25.55,0
1706279.0,-0.005,-0.008,-0.017,-23.83,163.15,0
1706284.0,-0.007,-0.003,-0.05,-3.25,171.58,0
1706289.0,-0.01,0.019,0.005,59.52,63.25,0
1706294.0,0.014,-0.012,0.022,-25.67,-33.05,0
1706299.0,0.019,0.016,0.012,35.92,-57.32,0
1706304.0,-0.01,-0.005,0.048,-6.13,11.55,0
1706309.0,-0.01,-0.008,-0.017,-21.67,149.4,0
1706314.0,0.012,-0.015,-0.029,-25.67,-157.68,0
1706319.0,0.009,-0.005,0.024,-11.52,-21.18,0
1706324.0,-0.007,-0.012,-0.031,-21.35,166.52,0
1706329.0,0.009,-0.017,0.022,-36.11,-23.27,0
1706334.0,-0.015,0.004,0.031,7.11,25.02,0
1706339.0,-0.003,-0.015,-0.033,-23.92,175.49,0
1706344.0,0.007,0.004,0.003,30.22,-69.8,0
1706349.0,-0.005,0.023,0.046,27.06,6.29,0
1706354.0,-0.01,0.011,0.017,30.43,30.12,0
1706359.0,-0.029,0.002,0.026,2.79,47.55,0
1706364.0,0.002,-0.0,-0.012,-2.28,-169.66,0
1706369.0,-0.015,-0.034,-0.007,-64.52,115.68,0
1706374.0,-0.019,-0.015,0.012,-32.98,57.97,0
1706379.0,0.005,0.002,0.01,10.11,-25.04,0
1706384.0,0.014,-0.003,0.0,-11.5,-89.35,0
1706389.0,-0.017,-0.008,0.003,-24.02,81.45,0
1706394.0,0.002,-0.01,0.022,-24.75,-5.67,0
1706399.0,0.031,-0.0,-0.012,-0.83,-110.93,0
1706404.0,0.014,-0.0,0.0,-1.94,-89.35,0
1706409.0,0.017,0.014,0.01,35.91,-59.48,0
1706414.0,-0.01,0.007,0.038,9.58,14.32,0
1706419.0,-0.005,0.004,0.005,31.42,45.45,0
1706424.0,0.005,-0.01,0.017,-29.85,-15.05,0
1706429.0,0.007,-0.01,-0.014,-32.46,-153.95,0
1706434.0,-0.012,-0.01,-0.017,-26.01,143.66,0
1706439.0,0.012,-0.008,-0.009,-26.99,-128.75,0
1706444.0,0.005,-0.003,-0.026,-6.17,-170.14,0
1706449.0,-0.007,0.026,0.015,57.75,27.07,0
1706454.0,-0.012,-0.029,0.01,-61.87,51.43,0
1706459.0,-0.015,0.026,-0.041,30.97,160.19,0
1706464.0,-0.015,0.002,-0.009,6.29,122.81,0
1706469.0,-0.0,-0.022,-0.009,-66.85,178.54,0
1706474.0,0.019,-0.039,0.003,-63.8,-82.31,0
1706479.0,0.002,-0.01,0.019,-27.36,-6.37,0
1706484.0,0.014,-0.003,0.003,-11.32,-79.75,0
1706489.0,-0.005,0.007,-0.012,27.58,156.94,0
1706494.0,-0.007,0.033,0.012,66.71,31.46,0
1706499.0,-0.003,-0.008,-0.007,-45.61,159.44,0
1706504.0,-0.005,-0.005,0.017,-16.62,16.55,0
1706509.0,0.007,-0.01,0.026,-20.16,-14.68,0
1706514.0,-0.019,-0.024,0.0,-51.55,89.53,0
1706519.0,0.009,0.009,0.01,34.0,-43.8,0
1706524.0,-0.01,-0.022,-0.021,-43.11,155.35,0
1706529.0,-0.005,0.028,-0.05,29.29,174.27,0
1706534.0,0.012,-0.008,0.003,-32.54,-77.71,0
1706539.0,-0.007,-0.015,0.019,-35.66,21.02,0
1706544.0,-0.015,0.009,0.005,30.54,71.28,0
1706549.0,-0.0,0.021,-0.007,71.56,178.05,0
1706554.0,-0.01,0.004,-0.014,14.01,145.35,0
1706559.0,-0.007,-0.008,-0.002,-44.67,106.75,0
1706564.0,-0.015,0.009,-0.007,29.31,115.68,0
1706569.0,0.017,0.021,0.024,35.79,-34.43,0
1706574.0,0.007,-0.022,0.024,-41.29,-16.07,0
1706579.0,0.002,-0.0,0.01,-2.75,-12.48,0
1706584.0,-0.003,0.014,-0.002,76.04,130.3,0
1706589.0,-0.024,0.004,0.003,10.05,83.97,0
1706594.0,0.017,-0.012,0.0,-37.0,-89.44,0
1706599.0,0.009,0.021,-0.007,60.99,-126.94,0
1706604.0,0.026,-0.01,0.015,-18.61,-60.9,0
1706609.0,0.021,-0.01,-0.021,-18.42,-135.11,0
1706614.0,0.007,0.007,0.026,13.75,-14.68,0
1706619.0,-0.01,0.019,0.031,29.66,17.42,0
1706624.0,0.031,0.021,0.031,25.61,-44.63,0
1706629.0,0.009,-0.008,0.046,-9.34,-11.56,0
1706634.0,0.002,0.002,0.015,7.43,-8.44,0
1706639.0,-0.005,0.004,-0.002,38.07,113.95,0
1706644.0,0.026,0.009,-0.014,17.02,-118.56,0
1706649.0,-0.024,-0.005,0.01,-11.42,68.07,0
1706654.0,-0.024,0.019,-0.002,37.56,95.28,0
1706659.0,-0.01,0.021,0.012,53.47,38.98,0
1706664.0,0.005,0.014,0.055,14.07,-4.71,0
1706669.0,-0.012,-0.005,-0.009,-18.86,127.64,0
1706674.0,0.019,0.021,-0.014,41.69,-126.91,0
1706679.0,0.021,-0.003,-0.012,-6.73,-119.0,0
1706684.0,0.009,0.004,0.034,7.03,-15.5,0
1706689.0,0.012,-0.01,0.022,-22.17,-28.39,0
1706694.0,0.038,0.009,-0.017,12.36,-113.56,0
1706699.0,0.005,0.002,-0.012,8.61,-158.93,0
1706704.0,-0.01,-0.003,0.046,-3.52,12.14,0
1706709.0,0.014,0.014,-0.005,43.05,-108.14,0
1706714.0,0.002,0.026,0.031,39.51,-3.94,0
1706719.0,0.028,0.007,0.015,11.84,-62.99,0
1706724.0,-0.003,-0.017,-0.038,-24.27,176.05,0
1706729.0,0.019,0.023,-0.005,50.31,-103.75,0
1706734.0,-0.0,0.021,0.031,33.96,0.44,0
1706739.0,0.002,0.043,-0.007,80.22,-162.94,0
1706744.0,0.005,0.028,0.01,69.17,-25.04,0
1706749.0,-0.01,-0.024,0.007,-63.34,53.2,0
1706754.0,0.019,-0.01,-0.06,-9.12,-162.42,0
1706759.0,-0.007,-0.003,0.005,-17.85,56.31,0
1706764.0,-0.012,0.014,-0.005,46.76,110.76,0
1706769.0,0.026,0.002,-0.002,4.18,-94.89,0
1706774.0,-0.022,0.014,-0.007,31.24,107.86,0
1706779.0,0.005,-0.005,-0.012,-22.6,-158.93,0
1706784.0,-0.0,0.016,-0.014,48.89,179.03,0
1706789.0,-0.0,0.004,-0.024,10.27,179.42,0
1706794.0,-0.003,0.011,-0.026,23.6,174.25,0
1706799.0,0.028,0.016,-0.005,29.42,-99.23,0
1706804.0,-0.0,-0.0,0.031,-0.88,0.44,0
1706809.0,0.002,0.004,-0.021,11.34,-174.25,0
1706814.0,-0.024,-0.017,-0.014,-31.58,120.43,0
1706819.0,-0.003,0.035,-0.002,84.43,130.3,0
1706824.0,-0.015,0.023,0.019,44.1,37.1,0
1706829.0,-0.0,-0.022,0.048,-24.63,0.29,0
1706834.0,-0.003,0.021,0.019,47.23,7.76,0
1706839.0,0.005,-0.027,-0.024,-47.92,-169.17,0
1706844.0,0.012,0.016,0.024,31.27,-25.95,0
1706849.0,0.012,-0.012,0.046,-14.8,-14.41,0
1706854.0,-0.012,0.011,0.031,18.89,21.32,0
1706859.0,0.021,0.023,0.012,43.74,-60.35,0
1706864.0,-0.012,0.007,-0.019,16.54,147.26,0
1706869.0,0.012,-0.005,0.0,-24.18,-89.22,0
1706874.0,0.012,-0.029,0.031,-41.16,-20.56,0
1706879.0,-0.027,0.004,0.022,7.16,50.76,0
1706884.0,0.007,0.014,-0.024,29.27,-163.72,0
1706889.0,-0.012,0.011,0.026,21.5,24.74,0
1706894.0,0.009,0.002,0.015,6.33,-32.73,0
1706899.0,-0.005,-0.0,-0.014,-1.82,160.51,0
1706904.0,-0.005,-0.015,-0.012,-49.15,156.94,0
1706909.0,-0.007,-0.017,-0.002,-65.79,106.75,0
1706914.0,0.028,-0.008,-0.005,-14.87,-99.23,0
1706919.0,-0.01,-0.036,0.005,-73.19,63.25,0
1706924.0,-0.017,-0.027,0.005,-56.57,73.77,0
1706929.0,0.021,0.009,0.024,15.79,-41.48,0
1706934.0,0.007,-0.022,0.003,-71.43,-69.8,0
1706939.0,-0.005,-0.005,0.022,-13.3,13.04,0
1706944.0,0.005,-0.008,0.041,-10.56,-6.35,0
1706949.0,0.005,-0.008,-0.009,-36.23,-154.22,0
1706954.0,0.017,-0.005,-0.026,-9.66,-147.74,0
1706959.0,-0.0,-0.01,-0.009,-46.87,178.54,0
1706964.0,-0.003,0.002,0.043,2.53,3.48,0
1706969.0,0.021,-0.01,0.015,-21.3,-55.72,0
1706974.0,0.009,-0.005,0.015,-16.96,-32.73,0
1706979.0,0.002,0.019,-0.024,38.03,-174.82,0
1706984.0,0.019,0.004,-0.002,12.75,-96.73,0
1706989.0,0.021,0.007,-0.019,13.22,-131.71,0
1706994.0,0.024,0.002,0.022,3.41,-47.51,0
1706999.0,-0.003,0.007,0.015,24.42,10.28,0
1707004.0,0.009,-0.003,-0.012,-10.8,-141.67,0
1707009.0,-0.0,0.026,-0.007,74.8,178.05,0
1707014.0,0.005,0.002,0.017,6.24,-15.05,0
1707019.0,-0.017,-0.005,0.022,-10.82,38.06,0
1707024.0,0.026,-0.0,0.017,-0.88,-57.04,0
1707029.0,0.009,-0.0,-0.076,-0.36,-173.04,0
1707034.0,0.002,-0.024,0.022,-48.23,-5.67,0
1707039.0,0.009,0.011,-0.012,37.36,-141.67,0
1707044.0,0.026,-0.008,0.003,-16.29,-84.41,0
1707049.0,-0.019,0.002,-0.002,5.6,96.57,0
1707054.0,0.017,-0.008,0.01,-21.78,-59.48,0
1707059.0,-0.005,0.002,0.01,9.91,27.31,0
1707064.0,-0.0,0.002,0.0,81.45,56.21,0
1707069.0,-0.017,-0.003,0.024,-5.56,35.19,0
1707074.0,-0.003,-0.0,0.019,-1.41,7.76,0
1707079.0,-0.0,0.002,0.015,7.51,0.94,0
1707084.0,-0.005,0.011,0.024,25.02,11.78,0
1707089.0,-0.007,0.028,0.026,45.75,15.65,0
1707094.0,0.007,0.038,0.0,79.6,-88.68,0
1707099.0,-0.015,-0.003,0.015,-7.94,45.16,0
1707104.0,-0.005,-0.012,0.0,-68.0,88.17,0
1707109.0,0.014,-0.005,-0.033,-8.27,-157.05,0
1707114.0,-0.0,-0.012,-0.005,-69.58,177.04,0
1707119.0,-0.017,0.007,0.05,7.18,18.62,0
1707124.0,0.009,0.016,0.015,43.31,-32.73,0
1707129.0,0.014,0.014,0.0,44.51,-89.35,0
1707134.0,0.007,0.014,-0.012,45.39,-149.55,0
1707139.0,0.007,-0.003,0.003,-21.22,-69.8,0
1707144.0,-0.01,-0.044,0.029,-55.0,18.77,0
1707149.0,0.005,-0.003,0.019,-8.24,-13.25,0
1707154.0,0.021,-0.02,0.0,-42.65,-89.57,0
1707159.0,0.017,0.011,-0.017,26.14,-135.14,0
1707164.0,-0.017,-0.032,-0.024,-47.23,144.44,0
1707169.0,0.021,-0.034,0.012,-54.2,-60.35,0
1707174.0,0.007,-0.034,0.038,-41.02,-10.23,0
1707179.0,0.014,-0.027,0.041,-31.81,-19.07,0
1707184.0,0.005,-0.005,0.003,-45.27,-60.68,0
1707189.0,0.007,-0.0,-0.014,-1.73,-153.95,0
1707194.0,-0.034,0.011,0.026,14.99,51.87,0
1707199.0,-0.034,-0.034,0.003,-45.12,85.67,0
1707204.0,-0.041,0.002,-0.029,2.2,124.91,0
1707209.0,0.017,-0.02,0.007,-47.36,-66.03,0
1707214.0,-0.031,0.002,-0.002,3.49,94.07,0
1707219.0,-0.0,0.016,-0.026,31.88,179.48,0
1707224.0,-0.024,0.004,0.003,10.05,83.97,0
1707229.0,0.017,0.007,-0.024,13.04,-145.21,0
1707234.0,-0.003,-0.01,0.029,-19.12,5.21,0
1707239.0,0.005,0.038,-0.019,62.69,-166.53,0
1707244.0,0.026,-0.005,0.007,-10.99,-74.28,0
1707249.0,-0.005,-0.008,0.01,-34.96,27.31,0
1707254.0,-0.019,-0.012,-0.005,-31.98,103.42,0
1707259.0,-0.019,0.004,-0.007,11.8,109.9,0
1707264.0,0.005,-0.041,0.026,-56.86,-9.74,0
1707269.0,-0.015,0.011,0.012,31.19,50.28,0
1707274.0,0.014,-0.056,0.012,-71.47,-49.34,0
1707279.0,-0.024,-0.012,0.0,-27.24,89.62,0
1707284.0,-0.007,0.014,0.007,53.06,45.31,0
1707289.0,-0.012,0.009,0.022,20.07,29.36,0
1707294.0,-0.01,-0.01,0.003,-44.75,75.41,0
1707299.0,0.012,-0.022,0.024,-39.41,-25.95,0
1707304.0,-0.01,-0.027,0.01,-62.72,45.23,0
1707309.0,-0.022,-0.012,0.026,-19.95,39.43,0
1707314.0,-0.0,0.004,0.015,16.52,0.94,0
1707319.0,-0.017,0.028,0.019,47.68,41.35,0
1707324.0,0.017,0.019,0.019,36.31,-40.54,0
1707329.0,-0.015,-0.0,0.003,-1.85,80.08,0
1707334.0,0.007,0.028,0.0,76.19,-88.68,0
1707339.0,0.012,-0.012,-0.002,-46.19,-100.78,0
1707344.0,-0.0,0.011,-0.036,17.82,179.62,0
1707349.0,0.002,0.019,0.046,22.23,-2.7,0
1707354.0,-0.015,0.004,0.01,13.79,56.31,0
1707359.0,-0.012,-0.02,0.024,-36.0,26.87,0
1707364.0,-0.012,0.016,0.007,48.81,58.98,0
1707369.0,0.024,-0.024,-0.007,-44.65,-106.5,0
1707374.0,0.014,-0.044,-0.002,-71.83,-98.98,0
1707379.0,0.005,0.021,0.034,31.8,-7.69,0
1707384.0,0.014,-0.022,-0.009,-52.38,-123.69,0
1707389.0,-0.0,0.004,-0.019,12.78,179.28,0
1707394.0,0.019,-0.01,-0.031,-15.49,-148.58,0
1707399.0,0.019,-0.017,0.012,-37.49,-57.32,0
1707404.0,-0.012,0.002,-0.031,3.29,158.48,0
1707409.0,0.002,-0.034,0.003,-84.39,-40.14,0
1707414.0,0.012,0.011,0.015,31.61,-38.93,0
1707419.0,0.002,-0.024,-0.014,-59.53,-171.37,0
1707424.0,0.021,0.002,0.026,3.22,-38.81,0
1707429.0,0.009,-0.005,0.003,-28.55,-74.7,0
1707434.0,-0.022,0.019,0.024,29.89,42.11,0
1707439.0,-0.005,-0.015,0.017,-40.06,16.55,0
1707444.0,0.014,0.016,-0.014,39.1,-135.16,0
1707449.0,0.007,-0.0,-0.021,-1.22,-162.02,0
1707454.0,-0.005,0.014,0.041,18.64,7.01,0
1707459.0,0.019,0.019,0.034,25.8,-29.32,0
1707464.0,-0.036,-0.032,0.005,-40.9,82.21,0
1707469.0,-0.003,-0.015,-0.009,-56.63,164.37,0
1707474.0,0.009,-0.003,0.005,-15.21,-62.08,0
1707479.0,-0.007,-0.029,-0.009,-67.68,141.76,0
1707484.0,-0.015,-0.012,0.019,-27.21,37.1,0
1707489.0,0.007,0.009,-0.067,7.71,-174.07,0
1707494.0,0.007,-0.024,0.036,-33.61,-10.89,0
1707499.0,-0.01,0.007,0.019,17.19,26.94,0
1707504.0,-0.01,0.009,0.017,24.94,30.12,0
1707509.0,-0.017,0.011,0.0,34.06,89.46,0
1707514.0,-0.007,0.009,0.005,45.56,56.31,0
1707519.0,0.012,0.009,0.003,37.15,-77.71,0
1707524.0,0.014,-0.0,-0.029,-0.86,-153.69,0
1707529.0,-0.003,0.009,0.024,20.57,6.24,0
1707534.0,0.017,0.004,0.031,6.95,-27.84,0
1707539.0,-0.003,0.021,-0.005,75.82,150.36,0
1707544.0,-0.01,-0.008,0.0,-37.97,89.06,0
1707549.0,0.012,-0.0,-0.021,-1.12,-151.25,0
1707554.0,-0.027,-0.015,0.007,-28.3,74.55,0
1707559.0,-0.005,0.016,0.022,36.15,13.04,0
1707564.0,0.009,-0.029,0.022,-51.03,-23.27,0
1707569.0,-0.0,0.007,0.019,19.14,0.71,0
1707574.0,0.005,-0.034,0.036,-43.08,-7.19,0
1707579.0,-0.019,0.002,0.012,4.79,57.97,0
1707584.0,0.014,-0.008,0.0,-28.47,-89.35,0
1707589.0,0.033,0.023,0.005,34.89,-81.54,0
1707594.0,-0.043,-0.027,-0.043,-23.73,134.73,0
1707599.0,-0.029,-0.017,-0.007,-30.04,103.62,0
1707604.0,0.007,-0.022,-0.019,-47.44,-159.92,0
1707609.0,-0.034,-0.029,0.003,-40.79,85.67,0
1707614.0,0.005,-0.0,0.029,-0.94,-8.95,0
1707619.0,0.014,-0.017,-0.019,-36.06,-143.36,0
1707624.0,0.026,0.014,0.022,22.25,-50.24,0
1707629.0,0.007,-0.01,-0.029,-18.88,-166.34,0
1707634.0,0.007,0.016,0.012,49.35,-29.78,0
1707639.0,-0.005,0.002,-0.002,19.2,113.95,0
1707644.0,0.014,0.009,-0.007,29.97,-116.43,0
1707649.0,-0.005,0.023,0.031,36.52,9.13,0
1707654.0,0.009,-0.005,0.015,-16.96,-32.73,0
1707659.0,-0.01,-0.01,-0.074,-7.67,172.45,0
1707664.0,0.026,-0.015,0.022,-23.62,-50.24,0
1707669.0,0.026,-0.01,0.0,-21.07,-89.65,0
1707674.0,-0.005,0.023,0.043,28.32,6.63,0
1707679.0,-0.0,0.014,0.003,79.53,5.35,0
1707684.0,-0.017,-0.017,0.015,-37.63,49.49,0
1707689.0,-0.005,-0.0,0.007,-3.08,34.4,0
1707694.0,0.002,0.007,-0.017,21.83,-172.6,0
1707699.0,-0.01,0.007,0.0,34.33,89.06,0
1707704.0,0.005,-0.02,-0.017,-48.76,-164.67,0
1707709.0,-0.017,-0.012,0.015,-29.11,49.49,0
1707714.0,-0.007,-0.01,0.01,-39.4,37.32,0
1707719.0,0.014,-0.015,-0.007,-43.26,-116.43,0
1707724.0,0.009,0.011,-0.017,31.11,-150.64,0
1707729.0,-0.01,-0.01,0.0,-45.69,89.06,0
1707734.0,0.002,-0.003,0.007,-20.58,-16.35,0
1707739.0,-0.003,-0.015,0.003,-76.12,45.87,0
1707744.0,0.005,-0.008,0.007,-41.57,-31.78,0
1707749.0,0.002,0.011,0.017,33.97,-7.26,0
1707754.0,-0.012,0.004,0.017,11.67,35.82,0
1707759.0,0.012,0.028,0.0,67.45,-89.22,0
1707764.0,-0.019,-0.003,0.022,-5.64,41.78,0
1707769.0,-0.017,-0.01,-0.007,-28.67,112.44,0
1707774.0,-0.01,-0.027,-0.005,-67.97,115.24,0
1707779.0,0.024,0.004,-0.038,5.48,-148.15,0
1707784.0,-0.0,-0.024,0.015,-59.25,0.94,0
1707789.0,-0.007,0.023,0.026,40.45,15.65,0
1707794.0,-0.007,-0.01,-0.007,-44.54,133.41,0
1707799.0,0.005,0.009,0.026,18.7,-9.74,0
1707804.0,-0.012,-0.044,0.012,-68.45,45.19,0
1707809.0,0.007,-0.029,0.029,-44.51,-13.51,0
1707814.0,0.017,-0.02,0.046,-22.02,-19.89,0
1707819.0,-0.003,-0.017,-0.009,-60.44,164.37,0
1707824.0,-0.012,0.026,0.05,26.49,13.61,0
1707829.0,-0.01,-0.027,0.0,-69.89,89.06,0
1707834.0,0.026,0.002,-0.038,2.37,-145.62,0
1707839.0,-0.015,-0.01,-0.019,-22.77,142.44,0
1707844.0,0.005,-0.003,0.041,-4.0,-6.35,0
1707849.0,0.019,0.007,-0.021,13.21,-138.51,0
1707854.0,0.002,0.007,0.015,24.54,-8.44,0
1707859.0,-0.017,0.016,0.046,18.48,20.42,0
1707864.0,-0.005,0.026,-0.007,71.53,144.4,0
1707869.0,-0.01,0.004,0.01,17.31,45.23,0
1707874.0,0.002,0.009,0.0,76.64,-85.75,0
1707879.0,-0.036,-0.008,0.026,-9.7,53.76,0
1707884.0,0.019,0.014,-0.002,36.1,-96.73,0
1707889.0,0.005,-0.039,0.029,-52.98,-8.95,0
1707894.0,-0.022,-0.034,0.041,-36.28,28.07,0
1707899.0,0.009,-0.005,0.0,-29.42,-89.02,0
1707904.0,0.017,-0.039,0.012,-62.15,-53.71,0
1707909.0,0.031,-0.034,0.024,-40.95,-52.03,0
1707914.0,-0.005,-0.034,-0.036,-43.28,172.0,0
1707919.0,0.04,-0.0,-0.005,-0.67,-96.53,0
1707924.0,-0.0,-0.012,0.0,-88.67,56.21,0
1707929.0,-0.0,-0.02,0.0,-89.16,56.21,0
1707934.0,-0.003,0.007,0.012,28.37,12.25,0
1707939.0,0.005,-0.02,0.005,-71.1,-42.59,0
1707944.0,0.009,0.019,0.01,54.16,-43.8,0
1707949.0,0.026,0.009,0.01,18.09,-69.54,0
1707954.0,-0.017,0.009,-0.041,11.69,157.25,0
1707959.0,0.002,0.04,0.012,72.97,-10.07,0
1707964.0,-0.024,0.031,-0.002,51.61,95.28,0
1707969.0,-0.015,0.002,0.01,6.23,56.31,0
1707974.0,0.005,0.026,-0.005,75.91,-135.49,0
1707979.0,-0.0,-0.003,-0.041,-4.05,179.66,0
1707984.0,-0.022,0.019,0.01,38.05,65.92,0
1707989.0,0.007,0.007,0.055,6.87,-7.17,0
1707994.0,-0.005,-0.044,-0.005,-81.09,132.63,0
1707999.0,0.024,-0.039,-0.012,-55.68,-116.49,0
1708004.0,-0.007,-0.022,-0.007,-65.12,133.41,0
1708009.0,-0.003,-0.039,0.005,-81.78,28.02,0
1708014.0,-0.003,-0.0,0.01,-2.72,15.13,0
1708019.0,0.002,0.002,-0.038,2.87,-176.77,0
1708024.0,-0.003,-0.005,0.015,-19.64,10.28,0
1708029.0,-0.017,-0.0,0.022,-0.99,38.06,0
1708034.0,-0.005,0.014,-0.002,68.39,113.95,0
1708039.0,-0.0,-0.022,0.046,-25.76,0.3,0
1708044.0,0.007,0.007,0.0,43.99,-88.68,0
1708049.0,0.026,0.014,0.015,24.94,-60.9,0
1708054.0,0.005,0.023,0.029,38.74,-8.95,0
1708059.0,0.007,0.031,-0.038,38.32,-169.68,0
1708064.0,0.002,0.009,-0.002,71.16,-136.03,0
1708069.0,0.026,0.019,0.015,32.02,-60.9,0
1708074.0,-0.017,-0.005,0.038,-7.14,23.84,0
1708079.0,0.026,0.021,-0.005,38.48,-100.06,0
1708084.0,0.002,0.023,0.015,57.96,-8.44,0
1708089.0,-0.017,-0.01,0.012,-25.71,54.49,0
1708094.0,-0.019,0.007,0.015,15.47,53.17,0
1708099.0,-0.015,-0.034,0.01,-62.69,56.31,0
1708104.0,-0.029,-0.024,0.005,-39.72,80.31,0
1708109.0,-0.039,-0.029,0.031,-30.47,50.94,0
1708114.0,-0.041,-0.044,0.007,-46.33,79.83,0
1708119.0,0.002,-0.02,0.005,-74.63,-23.53,0
1708124.0,-0.003,-0.032,-0.019,-58.75,172.11,0
1708129.0,-0.007,-0.046,-0.005,-79.23,121.95,0
1708134.0,-0.003,0.016,-0.041,21.84,176.28,0
1708139.0,-0.019,-0.017,-0.005,-40.85,103.42,0
1708144.0,-0.007,-0.012,-0.002,-58.1,106.75,0
1708149.0,-0.005,-0.0,0.029,-0.94,9.87,0
1708154.0,0.007,0.019,0.017,45.6,-22.31,0
1708159.0,0.009,0.016,0.005,57.01,-62.08,0
1708164.0,-0.01,0.019,0.0,62.27,89.06,0
1708169.0,0.014,0.019,-0.05,19.73,-164.26,0
1708174.0,0.033,0.043,0.003,51.93,-85.61,0
1708179.0,0.017,0.031,0.012,56.23,-53.71,0
1708184.0,0.019,-0.017,-0.014,-36.08,-126.91,0
1708189.0,0.007,-0.017,0.01,-55.25,-35.49,0
1708194.0,0.007,0.014,-0.005,59.0,-123.69,0
1708199.0,0.019,-0.005,0.036,-7.37,-27.67,0
1708204.0,0.014,0.002,-0.024,3.96,-149.29,0
1708209.0,0.002,-0.02,0.015,-53.2,-8.44,0
1708214.0,0.002,-0.01,-0.026,-20.95,-175.29,0
1708219.0,-0.01,-0.022,0.005,-63.48,63.25,0
1708224.0,0.017,-0.003,0.031,-4.64,-27.84,0
1708229.0,0.009,-0.008,0.005,-35.94,-62.08,0
1708234.0,-0.007,-0.017,-0.009,-55.18,141.76,0
1708239.0,0.014,0.009,0.005,31.29,-70.69,0
1708244.0,0.031,0.004,-0.019,6.78,-121.59,0
1708249.0,-0.029,-0.024,0.012,-37.87,67.28,0
1708254.0,-0.0,-0.01,0.012,-39.65,1.13,0
1708259.0,-0.022,-0.017,0.007,-36.86,71.37,0
1708264.0,0.014,0.011,-0.009,34.1,-123.69,0
1708269.0,-0.005,0.028,-0.002,78.98,113.95,0
1708274.0,0.007,-0.024,-0.009,-64.4,-143.6,0
1708279.0,0.005,0.028,0.036,37.85,-7.19,0
1708284.0,0.024,-0.022,0.003,-42.74,-83.85,0
1708289.0,0.009,0.011,0.019,28.18,-25.8,0
1708294.0,-0.003,0.021,0.017,50.9,8.85,0
1708299.0,-0.0,-0.005,-0.005,-48.66,177.04,0
1708304.0,0.021,0.016,0.005,36.66,-76.93,0
1708309.0,-0.01,-0.029,0.024,-48.3,22.16,0
1708314.0,0.014,0.023,-0.002,58.64,-98.98,0
1708319.0,0.005,0.021,0.041,27.13,-6.35,0
1708324.0,-0.005,0.023,-0.024,43.99,168.06,0
1708329.0,0.031,0.028,0.0,42.45,-89.7,0
1708334.0,0.019,0.016,0.022,29.49,-41.07,0
1708339.0,-0.022,-0.003,0.046,-3.25,25.51,0
1708344.0,0.002,-0.003,-0.012,-13.46,-169.66,0
1708349.0,-0.0,-0.015,-0.012,-51.49,178.84,0
1708354.0,0.019,-0.003,-0.038,-3.86,-153.63,0
1708359.0,-0.0,-0.015,-0.038,-21.26,179.64,0
1708364.0,-0.005,-0.015,0.029,-26.85,9.87,0
1708369.0,-0.0,-0.01,-0.009,-46.87,178.54,0
1708374.0,0.005,-0.027,0.007,-72.14,-31.78,0
1708379.0,-0.005,-0.003,-0.026,-6.15,169.13,0
1708384.0,-0.01,0.011,-0.029,20.83,161.04,0
1708389.0,-0.022,-0.015,-0.005,-33.68,101.99,0
1708394.0,0.002,-0.005,-0.012,-23.69,-169.66,0
1708399.0,-0.031,0.031,0.003,44.24,85.34,0
1708404.0,-0.0,0.007,0.055,6.92,0.25,0
1708409.0,-0.005,0.035,0.055,32.58,5.2,0
1708414.0,0.005,0.007,0.007,37.81,-31.78,0
1708419.0,0.024,0.002,-0.021,3.43,-132.06,0
1708424.0,-0.007,0.04,-0.021,60.63,160.86,0
1708429.0,0.012,0.031,0.007,65.7,-57.96,0
1708434.0,0.007,0.035,0.034,45.86,-11.65,0
1708439.0,-0.022,0.016,0.019,29.21,48.44,0
1708444.0,-0.005,-0.017,0.041,-22.72,7.01,0
1708449.0,0.009,-0.01,0.012,-33.3,-37.58,0
1708454.0,-0.012,-0.01,-0.038,-14.09,162.25,0
1708459.0,0.031,-0.027,0.026,-33.38,-49.37,0
1708464.0,0.005,-0.01,0.017,-29.85,-15.05,0
1708469.0,0.024,-0.01,-0.007,-22.13,-106.5,0
1708474.0,0.014,-0.036,0.038,-41.61,-20.16,0
1708479.0,-0.019,-0.008,-0.002,-21.43,96.57,0
1708484.0,0.014,-0.044,0.015,-65.06,-44.2,0
1708489.0,0.021,0.014,-0.009,30.8,-113.84,0
1708494.0,0.014,-0.017,0.043,-20.75,-18.09,0
1708499.0,0.005,0.019,0.007,65.18,-31.78,0
1708504.0,-0.017,0.021,-0.019,39.58,138.17,0
1708509.0,-0.027,0.014,0.017,23.79,57.52,0
1708514.0,0.002,0.026,0.015,60.41,-8.44,0
1708519.0,-0.0,0.04,-0.029,54.61,179.52,0
1708524.0,-0.01,0.009,-0.041,12.3,166.39,0
1708529.0,0.002,0.019,-0.005,74.71,-155.03,0
1708534.0,-0.0,0.016,0.0,88.99,56.21,0
1708539.0,-0.0,0.016,0.024,34.04,0.57,0
1708544.0,0.009,0.004,0.036,6.6,-14.51,0
1708549.0,0.052,0.019,-0.021,18.25,-112.19,0
1708554.0,-0.0,-0.012,-0.012,-46.5,178.84,0
1708559.0,-0.015,-0.022,-0.002,-56.15,98.69,0
1708564.0,-0.0,-0.017,0.0,-89.04,56.21,0
1708569.0,-0.024,-0.022,0.026,-31.55,42.38,0
1708574.0,0.005,-0.008,-0.014,-27.19,-162.24,0
1708579.0,0.024,-0.02,0.012,-36.4,-62.9,0
1708584.0,0.007,0.007,0.05,7.5,-7.84,0
1708589.0,0.012,-0.008,-0.038,-10.87,-162.91,0
1708594.0,0.024,-0.032,0.015,-48.66,-58.5,0
1708599.0,0.019,-0.024,-0.002,-52.05,-96.73,0
1708604.0,0.002,-0.005,0.015,-19.73,-8.44,0
1708609.0,-0.0,0.009,-0.009,44.01,178.54,0
1708614.0,-0.005,-0.003,-0.021,-7.45,166.77,0
1708619.0,-0.031,0.007,0.038,7.69,39.19,0
1708624.0,-0.012,-0.0,0.01,-1.76,51.43,0
1708629.0,-0.024,0.014,-0.021,23.27,131.49,0
1708634.0,-0.005,0.011,0.019,29.93,14.59,0
1708639.0,-0.031,0.004,0.036,5.15,41.01,0
1708644.0,-0.022,0.011,0.012,24.74,60.89,0
1708649.0,-0.0,0.04,0.007,79.65,1.87,0
1708654.0,-0.007,0.021,0.048,23.43,8.78,0
1708659.0,0.005,0.007,-0.009,32.66,-154.22,0
1708664.0,-0.007,-0.005,0.005,-30.56,56.31,0
1708669.0,-0.012,0.004,0.015,12.8,40.05,0
1708674.0,-0.01,-0.022,0.015,-51.48,34.05,0
1708679.0,-0.005,-0.036,0.017,-64.12,16.55,0
1708684.0,-0.012,-0.029,0.024,-47.23,26.87,0
1708689.0,-0.007,-0.017,0.019,-39.8,21.02,0
1708694.0,0.009,-0.003,-0.031,-5.08,-163.22,0
1708699.0,0.007,-0.056,0.0,-82.87,-88.68,0
1708704.0,0.002,-0.017,-0.009,-60.73,-167.11,0
1708709.0,-0.005,-0.008,0.024,-17.28,11.78,0
1708714.0,-0.005,-0.017,-0.002,-72.3,113.95,0
1708719.0,0.005,0.009,-0.021,22.59,-167.99,0
1708724.0,-0.019,0.026,-0.007,51.42,109.9,0
1708729.0,-0.01,0.028,0.015,58.18,34.05,0
1708734.0,0.019,0.026,0.01,50.56,-62.76,0
1708739.0,0.024,0.052,-0.002,65.48,-95.38,0
1708744.0,0.009,0.038,0.022,58.01,-23.27,0
1708749.0,-0.027,0.023,-0.024,33.34,131.82,0
1708754.0,-0.007,0.019,0.017,45.31,23.68,0
1708759.0,0.007,0.002,0.029,3.69,-13.51,0
1708764.0,-0.005,0.028,0.031,41.72,9.13,0
1708769.0,-0.01,0.011,-0.014,33.65,145.35,0
1708774.0,0.012,-0.015,-0.012,-41.72,-135.19,0
1708779.0,0.017,0.023,0.0,54.85,-89.44,0
1708784.0,0.012,0.004,-0.002,19.84,-100.78,0
1708789.0,0.007,-0.058,0.019,-70.49,-19.77,0
1708794.0,0.009,-0.022,0.0,-67.02,-89.02,0
1708799.0,-0.012,-0.06,0.026,-64.19,24.74,0
1708804.0,-0.031,-0.046,0.05,-37.74,31.87,0
1708809.0,-0.005,-0.003,-0.005,-22.8,132.63,0
1708814.0,-0.031,-0.017,0.022,-24.32,55.31,0
1708819.0,-0.022,-0.017,0.022,-29.27,45.1,0
1708824.0,0.002,-0.034,0.007,-77.31,-16.35,0
1708829.0,0.009,-0.003,0.046,-3.53,-11.56,0
1708834.0,0.005,0.009,-0.021,22.59,-167.99,0
1708839.0,0.009,0.009,-0.014,28.16,-146.68,0
1708844.0,0.012,0.014,-0.005,47.75,-111.53,0
1708849.0,0.014,0.033,0.005,65.63,-70.69,0
1708854.0,0.014,0.016,0.007,45.64,-62.53,0
1708859.0,0.019,0.014,-0.007,34.54,-110.37,0
1708864.0,0.012,0.026,-0.005,64.0,-111.53,0
1708869.0,0.007,0.028,0.005,73.21,-54.52,0
1708874.0,0.017,0.031,-0.009,58.18,-119.68,0
1708879.0,0.007,0.038,0.007,75.04,-43.4,0
1708884.0,-0.012,-0.01,0.029,-17.78,22.91,0
1708889.0,-0.017,-0.005,0.022,-10.82,38.06,0
1708894.0,-0.017,-0.044,0.031,-50.75,28.52,0
1708899.0,-0.019,0.011,0.031,17.34,31.79,0
1708904.0,0.005,-0.01,0.055,-10.29,-4.71,0
1708909.0,0.007,-0.027,0.017,-55.7,-22.31,0
1708914.0,-0.031,-0.008,-0.007,-13.41,102.62,0
1708919.0,0.014,-0.027,-0.005,-61.0,-108.14,0
1708924.0,-0.007,-0.0,-0.009,-2.29,141.76,0
1708929.0,-0.005,-0.027,-0.036,-36.6,172.0,0
1708934.0,-0.012,-0.034,-0.005,-68.99,110.76,0
1708939.0,0.007,-0.005,-0.024,-12.0,-163.72,0
1708944.0,-0.007,-0.008,0.038,-11.07,10.92,0
1708949.0,-0.003,0.021,0.017,50.9,8.85,0
1708954.0,0.017,0.007,0.012,18.11,-53.71,0
1708959.0,0.007,0.021,-0.009,60.96,-143.6,0
1708964.0,-0.003,0.021,0.015,54.98,10.28,0
1708969.0,0.024,0.021,0.046,22.27,-27.44,0
1708974.0,-0.012,0.043,0.01,69.87,51.43,0
1708979.0,0.021,0.011,-0.007,27.12,-108.24,0
1708984.0,0.005,0.064,0.072,41.66,-3.62,0
1708989.0,0.005,0.033,0.022,56.13,-11.84,0
1708994.0,0.012,0.021,-0.014,48.83,-140.45,0
1708999.0,-0.055,-0.022,0.024,-20.06,66.45,0
1709004.0,0.019,0.004,0.019,9.06,-44.4,0
1709009.0,-0.005,-0.032,-0.031,-45.21,170.78,0
1709014.0,-0.024,-0.008,0.029,-11.49,39.93,0
1709019.0,0.009,-0.015,-0.019,-35.04,-153.82,0
1709024.0,-0.007,-0.063,-0.007,-80.75,133.41,0
1709029.0,0.019,-0.017,-0.002,-42.15,-96.73,0
1709034.0,0.021,-0.017,-0.019,-31.13,-131.71,0
1709039.0,0.031,-0.039,-0.043,-36.25,-144.27,0
1709044.0,0.009,-0.022,-0.014,-52.34,-146.68,0
1709049.0,0.007,0.004,0.003,30.22,-69.8,0
1709054.0,0.024,-0.01,0.022,-17.37,-47.51,0
1709059.0,-0.0,-0.012,-0.024,-27.63,179.42,0
1709064.0,0.012,-0.012,0.01,-39.23,-50.31,0
1709069.0,-0.015,0.002,0.026,3.62,28.86,0
1709074.0,-0.003,0.014,-0.029,25.83,174.73,0
1709079.0,0.007,0.014,-0.021,31.7,-162.02,0
1709084.0,-0.015,0.021,0.024,36.78,31.21,0
1709089.0,-0.01,0.023,0.012,56.37,38.98,0
1709094.0,0.012,-0.008,-0.019,-18.94,-148.3,0
1709099.0,-0.012,0.009,0.007,32.56,58.98,0
1709104.0,-0.01,0.031,-0.017,57.82,149.4,0
1709109.0,0.002,0.004,-0.009,24.04,-167.11,0
1709114.0,0.033,-0.0,0.05,-0.45,-33.42,0
1709119.0,-0.005,-0.012,0.007,-54.44,34.4,0
1709124.0,0.002,-0.041,0.007,-79.47,-16.35,0
1709129.0,0.019,-0.044,0.038,-45.47,-26.18,0
1709134.0,0.009,-0.034,0.0,-74.64,-89.02,0
1709139.0,-0.019,-0.048,-0.017,-62.17,130.56,0
1709144.0,-0.024,-0.048,0.007,-62.41,73.11,0
1709149.0,-0.007,-0.024,0.015,-56.26,27.07,0
1709154.0,-0.041,-0.041,-0.014,-43.54,109.13,0
1709159.0,-0.015,-0.02,-0.069,-15.5,168.09,0
1709164.0,-0.024,0.026,-0.014,42.68,120.43,0
1709169.0,-0.007,0.014,0.005,57.28,56.31,0
1709174.0,0.007,0.043,0.026,57.27,-14.68,0
1709179.0,-0.01,0.035,-0.024,54.02,157.57,0
1709184.0,0.012,0.014,0.015,36.64,-38.93,0
1709189.0,-0.007,0.023,0.022,45.64,18.88,0
1709194.0,0.04,0.038,-0.017,40.86,-112.3,0
1709199.0,-0.005,0.009,0.01,39.7,27.31,0
1709204.0,0.012,0.014,0.003,49.15,-77.71,0
1709209.0,0.009,0.014,-0.026,26.55,-160.37,0
1709214.0,-0.015,0.035,0.019,55.65,37.1,0
1709219.0,0.031,-0.005,0.0,-9.68,-89.7,0
1709224.0,0.024,0.011,0.024,18.78,-44.52,0
1709229.0,0.017,0.021,0.012,45.79,-53.71,0
1709234.0,-0.012,-0.008,0.024,-15.83,26.87,0
1709239.0,0.021,-0.034,0.0,-57.92,-89.57,0
1709244.0,0.012,-0.046,-0.007,-73.44,-120.9,0
1709249.0,0.009,-0.017,-0.009,-52.43,-135.24,0
1709254.0,0.009,-0.022,0.01,-58.51,-43.8,0
1709259.0,-0.015,-0.058,0.029,-60.81,26.82,0
1709264.0,-0.0,-0.02,-0.029,-34.49,179.52,0
1709269.0,-0.024,-0.022,0.022,-34.13,48.08,0
1709274.0,0.009,-0.01,0.024,-21.26,-21.18,0
1709279.0,-0.005,-0.0,0.007,-3.08,34.4,0
1709284.0,-0.027,-0.003,0.038,-3.52,34.64,0
1709289.0,0.002,0.026,0.012,64.52,-10.07,0
1709294.0,-0.012,0.014,-0.012,39.26,134.05,0
1709299.0,0.002,-0.008,0.003,-66.43,-40.14,0
1709304.0,0.019,0.05,-0.014,64.59,-126.91,0
1709309.0,-0.017,-0.005,-0.007,-15.98,112.44,0
1709314.0,0.019,0.019,-0.002,44.44,-96.73,0
1709319.0,-0.007,-0.0,-0.021,-1.21,160.86,0
1709324.0,-0.005,0.04,0.01,74.76,27.31,0
1709329.0,0.043,-0.005,0.007,-6.91,-80.28,0
1709334.0,0.009,-0.058,0.015,-73.4,-32.73,0
1709339.0,-0.007,-0.012,0.048,-14.36,8.78,0
1709344.0,0.019,-0.044,-0.007,-65.16,-110.37,0
1709349.0,-0.015,-0.029,0.01,-59.0,56.31,0
1709354.0,-0.0,-0.048,0.0,-89.66,56.21,0
1709359.0,-0.007,-0.048,0.015,-71.36,27.07,0
1709364.0,0.007,-0.048,-0.031,-56.73,-167.36,0
1709369.0,0.028,-0.005,0.007,-10.15,-75.55,0
1709374.0,0.005,-0.003,-0.007,-18.95,-147.06,0
1709379.0,-0.017,0.016,-0.031,24.74,151.23,0
1709384.0,-0.01,-0.017,-0.007,-55.0,125.58,0
1709389.0,-0.019,0.011,-0.009,28.06,115.9,0
1709394.0,0.014,0.014,0.005,42.85,-70.69,0
1709399.0,-0.012,0.014,-0.005,46.76,110.76,0
1709404.0,-0.01,0.047,0.007,75.5,53.2,0
1709409.0,-0.024,0.038,0.026,46.52,42.38,0
1709414.0,-0.015,0.035,0.019,55.65,37.1,0
1709419.0,-0.022,0.023,0.026,34.37,39.43,0
1709424.0,-0.029,0.002,0.003,3.77,84.96,0
1709429.0,-0.01,0.014,0.005,51.63,63.25,0
1709434.0,-0.007,0.023,-0.005,69.56,121.95,0
1709439.0,-0.01,-0.029,0.022,-50.8,24.33,0
1709444.0,0.038,-0.01,-0.002,-14.77,-93.36,0
1709449.0,0.019,-0.02,0.024,-32.65,-38.12,0
1709454.0,-0.003,-0.027,0.003,-82.21,45.87,0
1709459.0,0.007,-0.063,0.019,-71.88,-19.77,0
1709464.0,0.024,-0.015,-0.057,-13.46,-157.53,0
1709469.0,-0.017,-0.005,0.012,-14.16,54.49,0
1709474.0,-0.019,-0.032,-0.002,-58.3,96.57,0
1709479.0,0.007,0.004,0.015,14.99,-25.55,0
1709484.0,-0.017,-0.024,0.0,-55.16,89.46,0
1709489.0,-0.017,-0.003,-0.026,-5.26,147.0,0
1709494.0,-0.005,-0.005,-0.007,-31.38,144.4,0
1709499.0,-0.0,-0.022,-0.012,-61.8,178.84,0
1709504.0,-0.005,0.009,-0.005,53.09,132.63,0
1709509.0,0.002,0.033,-0.002,84.63,-136.03,0
1709514.0,-0.024,0.023,-0.007,42.98,106.19,0
1709519.0,-0.015,0.043,-0.002,70.88,98.69,0
1709524.0,-0.015,0.011,0.038,15.61,20.79,0
1709529.0,-0.015,0.023,0.024,39.78,31.21,0
1709534.0,0.014,0.004,0.0,16.97,-89.35,0
1709539.0,-0.0,0.007,0.041,9.32,0.34,0
1709544.0,-0.017,-0.005,0.003,-17.04,81.45,0
1709549.0,-0.0,0.004,0.019,12.58,0.71,0
1709554.0,-0.005,-0.0,0.017,-1.55,16.55,0
1709559.0,-0.017,-0.024,0.031,-34.45,28.52,0
1709564.0,0.017,-0.012,0.019,-26.1,-40.54,0
1709569.0,-0.029,-0.0,0.003,-0.94,84.96,0
1709574.0,-0.003,-0.022,-0.024,-42.63,173.68,0
1709579.0,-0.007,-0.029,-0.009,-67.68,141.76,0
1709584.0,0.019,-0.022,0.01,-46.0,-62.76,0
1709589.0,-0.007,-0.003,0.058,-2.83,7.34,0
1709594.0,0.017,-0.027,0.0,-58.36,-89.44,0
1709599.0,-0.0,-0.034,-0.005,-82.24,177.04,0
1709604.0,-0.003,-0.0,0.038,-0.71,3.92,0
1709609.0,0.007,-0.034,0.012,-67.65,-29.78,0
1709614.0,-0.0,-0.0,0.005,-5.52,2.77,0
1709619.0,0.002,0.004,0.031,7.83,-3.94,0
1709624.0,0.007,0.038,0.034,47.73,-11.65,0
1709629.0,0.021,0.033,0.024,45.76,-41.48,0
1709634.0,0.002,0.011,0.01,49.05,-12.48,0
1709639.0,-0.027,0.019,0.007,34.11,74.55,0
1709644.0,-0.012,0.031,0.034,40.55,19.93,0
1709649.0,-0.017,0.033,0.012,57.7,54.49,0
1709654.0,-0.007,0.016,0.005,61.28,56.31,0
1709659.0,-0.034,0.004,0.048,4.2,35.09,0
1709664.0,0.007,0.014,0.015,40.78,-25.55,0
1709669.0,0.005,-0.024,-0.017,-54.83,-164.67,0
1709674.0,0.026,0.014,0.005,27.6,-79.26,0
1709679.0,-0.005,-0.01,-0.014,-33.72,160.51,0
1709684.0,-0.003,-0.012,0.01,-50.99,15.13,0
1709689.0,0.002,-0.017,-0.007,-66.92,-162.94,0
1709694.0,0.024,-0.005,-0.021,-9.37,-132.06,0
1709699.0,-0.005,-0.034,0.0,-81.58,88.17,0
1709704.0,-0.005,-0.01,0.036,-15.43,7.93,0
1709709.0,0.024,-0.034,0.041,-35.74,-30.12,0
1709714.0,-0.029,0.009,0.031,12.05,42.8,0
1709719.0,-0.007,0.007,-0.038,9.79,168.99,0
1709724.0,0.017,0.002,0.036,2.76,-24.61,0
1709729.0,-0.0,0.021,-0.005,77.59,177.04,0
1709734.0,-0.003,0.007,-0.005,51.54,150.36,0
1709739.0,-0.017,0.011,0.029,18.92,30.47,0
1709744.0,0.009,0.04,0.007,73.55,-51.82,0
1709749.0,0.002,0.019,0.024,37.66,-5.11,0
1709754.0,0.036,0.028,-0.002,38.32,-93.58,0
1709759.0,-0.003,0.011,-0.014,38.5,169.5,0
1709764.0,-0.017,0.016,0.041,20.2,22.59,0
1709769.0,-0.012,0.004,-0.017,11.81,143.66,0
1709774.0,-0.027,-0.005,0.005,-11.03,79.45,0
1709779.0,-0.01,-0.015,-0.019,-34.77,152.67,0
1709784.0,0.005,-0.01,0.015,-33.45,-17.39,0
1709789.0,0.021,-0.036,0.003,-59.47,-83.16,0
1709794.0,0.002,-0.012,0.026,-25.09,-4.65,0
1709799.0,-0.053,-0.0,0.01,-0.51,79.57,0
1709804.0,-0.017,-0.015,-0.009,-37.37,118.98,0
1709809.0,0.026,-0.027,0.053,-24.47,-26.29,0
1709814.0,-0.022,-0.032,-0.019,-47.55,131.08,0
1709819.0,0.024,-0.039,0.031,-44.66,-37.15,0
1709824.0,0.002,-0.008,0.026,-16.08,-4.65,0
1709829.0,0.009,0.009,-0.038,13.04,-166.25,0
1709834.0,-0.007,0.007,0.024,14.89,17.12,0
1709839.0,0.019,-0.01,-0.002,-27.83,-96.73,0
1709844.0,-0.022,-0.008,0.01,-17.8,65.92,0
1709849.0,0.028,0.023,0.01,37.93,-71.13,0
1709854.0,0.014,-0.008,0.038,-10.59,-20.16,0
1709859.0,0.014,0.04,0.024,55.22,-30.37,0
1709864.0,0.007,0.009,-0.017,26.82,-157.3,0
1709869.0,0.024,0.043,-0.002,60.81,-95.38,0
1709874.0,-0.0,0.031,0.031,44.41,0.44,0
1709879.0,0.017,0.04,0.038,43.85,-23.24,0
1709884.0,-0.01,-0.008,-0.002,-37.27,102.82,0
1709889.0,-0.0,0.002,-0.002,40.45,173.88,0
1709894.0,-0.012,0.019,0.019,39.26,32.3,0
1709899.0,-0.022,-0.022,-0.024,-34.33,137.51,0
1709904.0,0.012,-0.005,0.007,-20.84,-57.96,0
1709909.0,-0.039,-0.032,0.01,-38.48,75.82,0
1709914.0,0.026,-0.008,-0.007,-15.83,-105.06,0
1709919.0,-0.019,-0.015,0.029,-23.1,33.87,0
1709924.0,0.012,-0.015,0.005,-49.38,-67.13,0
1709929.0,-0.031,-0.015,-0.005,-25.09,98.39,0
1709934.0,0.031,-0.015,0.046,-15.07,-34.08,0
1709939.0,-0.036,-0.029,-0.017,-36.29,114.66,0
1709944.0,0.028,-0.02,0.005,-34.17,-80.15,0
1709949.0,-0.029,0.021,0.01,34.58,71.42,0
1709954.0,0.033,0.023,0.0,35.18,-89.72,0
1709959.0,-0.019,0.019,0.019,34.31,45.12,0
1709964.0,0.024,0.019,-0.005,37.71,-101.05,0
1709969.0,0.005,0.021,-0.017,50.76,-164.67,0
1709974.0,0.038,0.019,0.043,17.96,-41.35,0
1709979.0,-0.01,0.014,0.029,24.47,18.77,0
1709984.0,0.017,0.011,-0.069,9.17,-166.59,0
1709989.0,-0.024,0.021,-0.053,20.02,155.27,0
1709994.0,0.005,0.002,-0.007,12.9,-147.06,0
1709999.0,0.007,-0.008,-0.005,-42.56,-123.69,0
1710004.0,0.009,-0.003,0.015,-9.45,-32.73,0
1710009.0,-0.019,0.004,0.038,5.71,26.75,0
1710014.0,0.005,-0.003,0.031,-5.19,-8.27,0
1710019.0,-0.012,-0.017,0.003,-54.11,78.18,0
1710024.0,-0.027,-0.048,0.007,-60.31,74.55,0
1710029.0,0.031,-0.017,-0.005,-28.9,-98.52,0
1710034.0,-0.024,-0.003,0.005,-6.64,78.43,0
1710039.0,0.014,-0.027,-0.002,-61.93,-98.98,0
1710044.0,-0.046,-0.012,-0.026,-13.29,119.79,0
1710049.0,-0.019,-0.017,-0.024,-29.33,140.8,0
1710054.0,-0.019,-0.022,0.046,-23.95,23.02,0
1710059.0,0.033,-0.012,0.015,-18.92,-66.42,0
1710064.0,-0.01,0.026,-0.007,64.98,125.58,0
1710069.0,-0.0,0.009,-0.021,23.04,179.36,0
1710074.0,-0.003,0.011,0.007,55.83,19.73,0
1710079.0,-0.003,0.009,0.015,31.65,10.28,0
1710084.0,-0.024,0.021,0.003,40.91,83.97,0
1710089.0,-0.012,-0.008,-0.009,-26.42,127.64,0
1710094.0,0.019,0.011,0.007,29.53,-68.78,0
1710099.0,0.002,0.014,-0.017,39.68,-172.6,0
1710104.0,-0.0,-0.01,-0.043,-13.18,179.68,0
1710109.0,-0.007,-0.015,-0.012,-46.78,147.85,0
1710114.0,0.021,-0.022,0.034,-28.93,-32.32,0
1710119.0,0.012,0.002,0.005,8.56,-67.13,0
1710124.0,-0.015,0.009,-0.009,27.63,122.81,0
1710129.0,-0.007,-0.029,0.015,-60.82,27.07,0
1710134.0,-0.012,-0.029,0.005,-65.72,67.94,0
1710139.0,0.007,-0.027,0.003,-74.58,-69.8,0
1710144.0,-0.0,-0.01,0.01,-45.91,1.41,0
1710149.0,0.019,0.021,0.036,27.35,-27.67,0
1710154.0,-0.019,-0.027,0.029,-37.62,33.87,0
1710159.0,-0.007,-0.032,0.003,-76.05,71.0,0
1710164.0,-0.0,-0.029,0.05,-30.07,0.27,0
1710169.0,-0.022,0.007,0.034,9.49,32.9,0
1710174.0,0.007,0.023,-0.012,59.72,-149.55,0
1710179.0,-0.029,-0.005,0.007,-10.0,75.78,0
1710184.0,0.007,-0.005,0.031,-9.33,-12.51,0
1710189.0,0.005,-0.003,0.019,-8.24,-13.25,0
1710194.0,0.005,0.009,0.012,35.08,-20.55,0
1710199.0,-0.01,0.038,-0.005,73.99,115.24,0
1710204.0,0.017,0.011,0.024,21.47,-34.43,0
1710209.0,-0.022,0.014,0.007,31.13,71.37,0
1710214.0,0.019,-0.02,0.005,-45.12,-75.34,0
1710219.0,0.005,-0.039,-0.002,-82.56,-116.15,0
1710224.0,-0.0,-0.012,0.012,-45.74,1.13,0
1710229.0,0.007,-0.015,-0.019,-36.28,-159.92,0
1710234.0,0.019,-0.027,0.036,-33.36,-27.67,0
1710239.0,-0.007,-0.046,0.038,-49.56,10.92,0
1710244.0,-0.022,-0.0,-0.045,-0.55,154.33,0
1710249.0,0.014,-0.027,0.003,-61.84,-79.75,0
1710254.0,-0.003,0.007,0.017,21.38,8.85,0
1710259.0,-0.003,-0.024,-0.005,-77.7,150.36,0
1710264.0,0.012,-0.008,0.012,-24.42,-44.04,0
1710269.0,0.005,-0.003,-0.019,-8.37,-166.53,0
1710274.0,-0.007,-0.003,0.019,-7.91,21.02,0
1710279.0,-0.005,-0.02,-0.009,-61.47,151.9,0
1710284.0,-0.003,0.014,0.003,75.2,45.87,0
1710289.0,0.017,-0.012,-0.019,-26.32,-138.98,0
1710294.0,-0.012,0.007,0.012,21.28,45.19,0
1710299.0,-0.01,0.026,0.034,36.39,16.25,0
1710304.0,-0.012,-0.017,0.019,-37.03,32.3,0
1710309.0,0.017,-0.008,0.022,-15.69,-37.27,0
1710314.0,0.007,0.026,0.012,61.61,-29.78,0
1710319.0,-0.015,0.009,0.034,13.92,23.44,0
1710324.0,-0.007,-0.036,0.031,-48.54,13.35,0
1710329.0,-0.012,0.021,0.029,33.89,22.91,0
1710334.0,-0.005,-0.005,0.017,-16.62,16.55,0
1710339.0,-0.015,0.009,-0.002,31.62,98.69,0
1710344.0,0.019,0.021,0.012,43.16,-57.32,0
1710349.0,-0.019,-0.039,0.01,-60.77,63.34,0
1710354.0,0.012,-0.0,0.007,-1.98,-57.96,0
1710359.0,0.024,0.002,-0.019,3.61,-128.71,0
1710364.0,0.019,-0.003,0.024,-5.36,-38.12,0
1710369.0,0.002,-0.039,0.015,-69.26,-8.44,0
1710374.0,0.026,-0.003,0.026,-4.42,-44.56,0
1710379.0,-0.0,-0.01,-0.014,-35.29,179.03,0
1710384.0,-0.003,0.026,-0.009,69.29,164.37,0
1710389.0,0.028,0.033,0.01,47.66,-71.13,0
1710394.0,-0.017,0.031,0.005,59.98,73.77,0
1710399.0,0.005,0.019,0.003,74.39,-60.68,0
1710404.0,0.021,-0.008,0.06,-6.86,-19.55,0
1710409.0,-0.003,-0.003,0.053,-3.11,2.85,0
1710414.0,0.019,0.011,0.012,27.09,-57.32,0
1710419.0,-0.012,0.009,0.01,30.22,51.43,0
1710424.0,-0.007,0.026,0.024,45.72,17.12,0
1710429.0,-0.022,0.016,-0.017,30.73,127.3,0
1710434.0,0.031,-0.0,0.01,-0.85,-72.5,0
1710439.0,-0.015,-0.017,0.019,-35.45,37.1,0
1710444.0,0.019,-0.029,-0.005,-56.31,-103.75,0
1710449.0,-0.003,-0.017,0.022,-38.25,6.92,0
1710454.0,0.024,-0.008,0.026,-12.16,-41.81,0
1710459.0,-0.005,-0.029,-0.019,-56.07,165.17,0
1710464.0,0.002,0.004,-0.002,54.24,-136.03,0
1710469.0,0.012,-0.032,0.026,-47.48,-23.88,0
1710474.0,0.009,-0.015,0.015,-40.68,-32.73,0
1710479.0,0.033,-0.005,0.0,-8.99,-89.72,0
1710484.0,0.012,-0.046,0.015,-67.89,-38.93,0
1710489.0,0.024,0.009,0.017,17.35,-54.48,0
1710494.0,0.002,-0.012,-0.033,-20.43,-176.3,0
1710499.0,0.024,0.004,0.036,5.7,-33.31,0
1710504.0,-0.017,-0.0,0.026,-0.87,32.68,0
1710509.0,-0.0,0.021,0.007,70.78,1.87,0
1710514.0,0.005,0.009,-0.005,54.5,-135.49,0
1710519.0,-0.003,0.004,0.019,12.47,7.76,0
1710524.0,0.007,-0.01,0.017,-28.8,-22.31,0
1710529.0,-0.031,-0.0,0.0,-0.87,89.71,0
1710534.0,-0.022,-0.02,0.005,-41.31,77.2,0
1710539.0,0.014,0.026,0.05,26.27,-15.65,0
1710544.0,-0.015,0.007,0.01,20.9,56.31,0
1710549.0,-0.029,0.011,0.017,18.91,59.71,0
1710554.0,0.002,-0.0,-0.002,-8.77,-136.03,0
1710559.0,0.005,-0.003,0.005,-23.14,-42.59,0
1710564.0,-0.036,-0.0,-0.007,-0.74,100.99,0
1710569.0,-0.012,-0.017,0.005,-52.61,67.94,0
1710574.0,-0.019,-0.034,-0.005,-59.61,103.42,0
1710579.0,-0.017,0.004,0.003,14.07,81.45,0
1710584.0,-0.01,-0.017,-0.041,-22.45,166.39,0
1710589.0,-0.017,-0.01,0.015,-24.21,49.49,0
1710594.0,0.021,-0.027,-0.033,-34.11,-147.43,0
1710599.0,0.002,0.009,0.017,28.08,-7.26,0
1710604.0,0.038,-0.008,0.015,-10.65,-69.11,0
1710609.0,-0.003,-0.012,0.036,-18.99,4.18,0
1710614.0,-0.005,0.033,-0.009,72.1,151.9,0
1710619.0,-0.0,0.004,0.046,5.39,0.3,0
1710624.0,-0.01,-0.012,-0.021,-27.88,155.35,0
1710629.0,0.005,0.026,-0.005,75.91,-135.49,0
1710634.0,-0.005,0.009,0.01,39.7,27.31,0
1710639.0,0.014,-0.0,-0.014,-1.37,-135.16,0
1710644.0,0.005,0.004,0.017,13.82,-15.05,0
1710649.0,0.009,0.016,0.019,37.2,-25.8,0
1710654.0,-0.019,-0.003,-0.009,-7.59,115.9,0
1710659.0,-0.017,0.014,0.015,31.84,49.49,0
1710664.0,-0.024,-0.027,0.019,-40.91,51.39,0
1710669.0,-0.007,-0.0,0.007,-2.63,45.31,0
1710674.0,-0.017,0.014,0.01,35.33,60.2,0
1710679.0,0.012,-0.02,0.015,-46.44,-38.93,0
1710684.0,0.017,-0.027,0.022,-44.51,-37.27,0
1710689.0,-0.046,0.002,-0.033,1.94,126.11,0
1710694.0,0.007,-0.008,-0.007,-37.81,-135.32,0
1710699.0,-0.007,-0.056,0.003,-81.96,71.0,0
1710704.0,-0.01,0.009,-0.019,23.05,152.67,0
1710709.0,0.002,0.011,0.043,14.86,-2.85,0
1710714.0,-0.005,0.014,-0.005,63.8,132.63,0
1710719.0,-0.003,0.019,-0.033,29.17,175.49,0
1710724.0,0.014,-0.003,0.0,-11.5,-89.35,0
1710729.0,-0.0,0.004,-0.012,20.04,178.84,0
1710734.0,0.014,0.021,0.017,43.71,-39.86,0
1710739.0,0.026,0.021,-0.002,38.81,-94.89,0
1710744.0,0.009,0.011,0.043,14.56,-12.18,0
1710749.0,-0.005,-0.003,-0.009,-15.06,151.9,0
1710754.0,-0.003,-0.022,0.01,-65.4,15.13,0
1710759.0,-0.015,0.023,0.0,58.1,89.37,0
1710764.0,0.012,0.026,0.024,43.97,-25.95,0
1710769.0,-0.024,0.009,0.005,20.23,78.43,0
1710774.0,-0.007,0.004,0.024,9.7,17.12,0
1710779.0,0.012,-0.008,-0.019,-18.94,-148.3,0
1710784.0,-0.029,-0.015,-0.002,-27.06,94.41,0
1710789.0,-0.024,-0.022,0.0,-42.33,89.62,0
1710794.0,0.009,0.007,-0.036,10.28,-165.36,0
1710799.0,-0.019,-0.017,-0.031,-25.26,147.94,0
1710804.0,-0.003,-0.029,0.012,-66.97,12.25,0
1710809.0,-0.015,-0.008,0.067,-6.36,12.26,0
1710814.0,-0.007,-0.02,-0.05,-21.18,171.58,0
1710819.0,0.012,0.019,0.005,55.71,-67.13,0
1710824.0,-0.01,-0.017,0.026,-31.39,20.33,0
1710829.0,0.005,-0.036,-0.038,-43.45,-173.2,0
1710834.0,0.005,-0.029,-0.024,-50.34,-169.17,0
1710839.0,-0.019,-0.01,-0.029,-16.24,145.83,0
1710844.0,-0.003,0.057,-0.007,82.5,159.44,0
1710849.0,0.007,0.045,-0.002,80.8,-107.83,0
1710854.0,-0.012,0.004,-0.021,9.93,150.28,0
1710859.0,-0.024,0.007,-0.06,5.94,157.95,0
1710864.0,0.009,0.016,-0.005,57.38,-116.37,0
1710869.0,0.007,0.028,0.036,37.56,-10.89,0
1710874.0,0.033,0.004,0.036,5.02,-42.69,0
1710879.0,-0.003,0.002,0.031,3.49,4.81,0
1710884.0,-0.003,-0.008,0.017,-24.1,8.85,0
1710889.0,0.017,0.002,0.007,6.05,-66.03,0
1710894.0,-0.0,0.011,-0.041,15.83,179.66,0
1710899.0,-0.01,-0.003,0.034,-4.68,16.25,0
1710904.0,0.012,-0.029,0.017,-54.82,-34.74,0
1710909.0,-0.017,0.028,-0.053,27.11,162.06,0
1710914.0,-0.027,-0.034,0.017,-47.18,57.52,0
1710919.0,-0.031,-0.008,0.017,-12.13,61.65,0
1710924.0,0.021,-0.02,0.017,-35.81,-51.55,0
1710929.0,0.012,-0.0,-0.005,-2.17,-111.53,0
1710934.0,0.012,-0.005,-0.036,-7.97,-161.83,0
1710939.0,-0.017,-0.036,-0.005,-64.17,105.23,0
1710944.0,0.007,-0.0,-0.024,-1.11,-163.72,0
1710949.0,-0.015,-0.012,0.005,-38.92,71.28,0
1710954.0,-0.0,0.016,-0.002,82.14,173.88,0
1710959.0,-0.007,0.019,-0.002,67.46,106.75,0
1710964.0,-0.007,0.019,0.017,45.31,23.68,0
1710969.0,-0.01,-0.02,0.003,-62.68,75.41,0
1710974.0,0.014,0.011,-0.024,22.56,-149.29,0
1710979.0,-0.017,-0.003,0.017,-6.83,45.13,0
1710984.0,0.021,0.009,0.026,14.98,-38.81,0
1710989.0,-0.0,-0.034,0.017,-63.54,0.81,0
1710994.0,0.014,0.019,0.022,35.79,-33.05,0
1710999.0,0.012,0.004,-0.033,6.95,-160.62,0
1711004.0,-0.017,-0.012,-0.017,-27.65,134.32,0
1711009.0,-0.007,-0.032,-0.019,-57.17,158.66,0
1711014.0,0.002,-0.034,0.036,-43.25,-3.42,0
1711019.0,0.002,-0.015,-0.067,-12.51,-178.15,0
1711024.0,-0.003,-0.012,0.038,-17.89,3.92,0
1711029.0,-0.017,-0.058,0.01,-71.32,60.2,0
1711034.0,-0.003,0.007,0.022,17.04,6.92,0
1711039.0,0.009,0.004,-0.043,5.6,-167.73,0
1711044.0,-0.003,0.004,-0.007,29.88,159.44,0
1711049.0,-0.015,-0.024,0.017,-47.53,40.8,0
1711054.0,-0.003,-0.005,0.036,-8.29,4.18,0
1711059.0,-0.01,0.011,0.003,48.57,75.41,0
1711064.0,0.031,0.011,0.007,19.9,-76.63,0
1711069.0,-0.007,0.009,0.024,19.84,17.12,0
1711074.0,0.012,0.009,-0.014,26.28,-140.45,0
1711079.0,0.009,0.004,0.036,6.6,-14.51,0
1711084.0,-0.005,0.011,0.015,36.78,19.09,0
1711089.0,0.019,0.011,0.019,23.03,-44.4,0
1711094.0,0.002,0.038,-0.043,41.35,-177.13,0
1711099.0,-0.024,0.023,0.005,43.55,78.43,0
1711104.0,0.012,-0.024,-0.029,-38.33,-157.68,0
1711109.0,-0.041,0.016,-0.002,21.66,93.12,0
1711114.0,-0.005,0.004,0.036,6.75,7.93,0
1711119.0,0.007,0.009,0.019,23.91,-19.77,0
1711124.0,0.026,0.009,0.017,16.31,-57.04,0
1711129.0,0.017,-0.0,-0.005,-1.6,-105.65,0
1711134.0,-0.036,0.002,0.007,2.97,78.52,0
1711139.0,0.002,0.019,0.022,40.57,-5.67,0
1711144.0,-0.024,0.004,0.017,8.31,55.02,0
1711149.0,-0.012,-0.053,0.029,-59.45,22.91,0
1711154.0,0.012,0.004,0.017,11.82,-34.74,0
1711159.0,0.007,0.014,0.046,16.74,-8.65,0
1711164.0,0.012,-0.003,-0.009,-10.81,-128.75,0
1711169.0,0.005,0.004,-0.012,18.8,-158.93,0
1711174.0,0.009,0.002,0.005,10.27,-62.08,0
1711179.0,0.012,0.009,-0.005,35.81,-111.53,0
1711184.0,0.017,0.019,0.015,40.33,-48.68,0
1711189.0,-0.003,0.026,-0.007,73.83,159.44,0
1711194.0,0.021,-0.005,0.005,-13.54,-76.93,0
1711199.0,-0.005,-0.022,0.024,-41.82,11.78,0
1711204.0,-0.017,-0.003,0.031,-4.61,28.52,0
1711209.0,0.007,-0.022,0.0,-72.5,-88.68,0
1711214.0,-0.015,0.007,-0.024,13.51,148.45,0
1711219.0,0.005,-0.022,0.015,-55.35,-17.39,0
1711224.0,0.002,-0.0,0.015,-1.87,-8.44,0
1711229.0,-0.015,0.021,-0.002,54.96,98.69,0
1711234.0,-0.0,-0.01,0.005,-63.77,2.77,0
1711239.0,-0.012,-0.003,-0.021,-6.65,150.28,0
1711244.0,-0.022,0.011,-0.029,17.74,142.67,0
1711249.0,-0.0,-0.024,-0.017,-55.79,179.17,0
1711254.0,-0.019,-0.003,-0.012,-7.21,121.34,0
1711259.0,0.017,0.014,0.01,35.91,-59.48,0
1711264.0,0.017,-0.039,0.01,-63.69,-59.48,0
1711269.0,-0.007,-0.034,0.029,-48.74,14.41,0
1711274.0,0.005,-0.003,-0.005,-23.88,-135.49,0
1711279.0,0.005,0.002,-0.014,7.32,-162.24,0
1711284.0,-0.01,0.002,0.029,3.59,18.77,0
1711289.0,0.007,0.007,-0.019,18.34,-159.92,0
1711294.0,0.005,-0.039,-0.014,-68.97,-162.24,0
1711299.0,-0.0,-0.012,0.007,-59.45,1.87,0
1711304.0,-0.034,-0.003,-0.021,-4.11,122.36,0
1711309.0,-0.003,0.014,0.019,35.47,7.76,0
1711314.0,-0.015,-0.0,-0.033,-0.75,156.36,0
1711319.0,-0.019,0.016,-0.009,37.06,115.9,0
1711324.0,-0.003,-0.022,-0.024,-42.63,173.68,0
1711329.0,0.005,-0.022,-0.014,-55.9,-162.24,0
1711334.0,-0.005,0.023,0.024,43.62,11.78,0
1711339.0,-0.0,-0.027,-0.007,-75.32,178.05,0
1711344.0,-0.012,-0.029,0.015,-56.99,40.05,0
1711349.0,-0.036,-0.008,0.017,-10.87,64.92,0
1711354.0,0.007,0.014,0.034,21.99,-11.65,0
1711359.0,-0.012,0.021,0.01,53.45,51.43,0
1711364.0,-0.0,-0.02,-0.026,-36.87,179.48,0
1711369.0,-0.0,-0.02,0.015,-53.5,0.94,0
1711374.0,0.002,-0.005,-0.007,-35.64,-162.94,0
1711379.0,0.014,0.031,0.026,45.58,-28.06,0
1711384.0,0.014,-0.012,0.029,-21.16,-26.06,0
1711389.0,0.026,0.007,-0.026,10.28,-135.09,0
1711394.0,0.017,-0.012,-0.007,-34.74,-113.03,0
1711399.0,0.005,0.021,0.007,67.71,-31.78,0
1711404.0,0.007,-0.0,0.007,-2.71,-43.4,0
1711409.0,0.012,-0.005,0.034,-8.4,-19.21,0
1711414.0,0.019,-0.008,0.022,-14.9,-41.07,0
1711419.0,-0.0,-0.0,0.003,-10.57,5.35,0
1711424.0,-0.01,-0.003,0.017,-8.36,30.12,0
1711429.0,-0.0,-0.0,0.005,-5.52,2.77,0
1711434.0,-0.003,0.031,-0.002,83.57,130.3,0
1711439.0,-0.007,0.009,-0.038,13.18,168.99,0
1711444.0,0.012,-0.039,0.01,-68.54,-50.31,0
1711449.0,0.007,-0.005,0.026,-10.88,-14.68,0
1711454.0,-0.01,-0.003,0.038,-4.14,14.32,0
1711459.0,0.026,-0.024,-0.007,-42.1,-105.06,0
1711464.0,-0.0,-0.008,0.022,-19.44,0.63,0
1711469.0,0.007,-0.005,0.003,-35.45,-69.8,0
1711474.0,0.005,-0.017,-0.036,-25.56,-172.75,0
1711479.0,-0.012,-0.024,0.005,-61.65,67.94,0
1711484.0,-0.007,-0.0,0.012,-1.93,31.46,0
1711489.0,0.031,0.004,0.022,6.51,-54.9,0
1711494.0,0.005,-0.015,-0.002,-71.15,-116.15,0
1711499.0,-0.019,-0.012,0.012,-28.56,57.97,0
1711504.0,-0.012,-0.008,0.022,-17.1,29.36,0
1711509.0,-0.017,0.004,0.003,14.07,81.45,0
1711514.0,-0.039,-0.02,0.019,-24.48,63.39,0
1711519.0,0.002,0.023,0.007,71.94,-16.35,0
1711524.0,0.005,0.021,-0.002,76.48,-116.15,0
1711529.0,0.002,-0.015,-0.019,-37.83,-173.53,0
1711534.0,0.014,-0.005,0.015,-14.57,-44.2,0
1711539.0,0.012,0.009,0.019,21.93,-31.28,0
1711544.0,0.009,-0.027,0.003,-70.15,-74.7,0
1711549.0,-0.0,0.004,0.017,14.29,0.81,0
1711554.0,0.005,0.004,0.012,18.4,-20.55,0
1711559.0,0.007,-0.01,0.0,-55.37,-88.68,0
1711564.0,-0.005,0.014,-0.019,35.25,165.17,0
1711569.0,-0.012,-0.022,0.026,-37.05,24.74,0
1711574.0,-0.01,-0.01,-0.002,-44.97,102.82,0
1711579.0,0.009,-0.02,0.024,-37.22,-21.18,0
1711584.0,-0.0,-0.036,-0.007,-79.07,178.05,0
1711589.0,0.005,-0.005,0.007,-31.37,-31.78,0
1711594.0,0.033,-0.036,-0.005,-47.28,-97.92,0
1711599.0,-0.005,0.019,0.012,54.88,22.51,0
1711604.0,-0.012,0.004,-0.021,9.93,150.28,0
1711609.0,-0.0,-0.036,0.026,-53.94,0.52,0
1711614.0,0.002,0.002,0.0,41.56,-85.75,0
1711619.0,0.017,0.004,0.007,13.41,-66.03,0
1711624.0,0.014,0.021,0.019,41.36,-36.18,0
1711629.0,-0.012,0.028,0.055,26.54,12.47,0
1711634.0,0.002,0.002,0.017,6.41,-7.26,0
1711639.0,-0.024,-0.003,0.017,-5.56,55.02,0
1711644.0,0.033,0.023,-0.009,34.15,-105.8,0
1711649.0,0.002,-0.022,0.019,-48.58,-6.37,0
1711654.0,-0.015,-0.036,-0.029,-48.6,152.92,0
1711659.0,-0.017,-0.022,-0.007,-50.14,112.44,0
1711664.0,-0.039,-0.027,0.043,-24.84,41.71,0
1711669.0,0.007,0.031,0.036,39.84,-10.89,0
1711674.0,0.007,0.002,0.012,7.8,-29.78,0
1711679.0,-0.017,-0.029,0.026,-42.86,32.68,0
1711684.0,0.005,0.016,0.01,56.57,-25.04,0
1711689.0,-0.024,-0.022,-0.002,-42.21,95.28,0
1711694.0,-0.012,0.002,0.012,6.35,45.19,0
1711699.0,-0.003,0.002,0.003,27.57,45.87,0
1711704.0,-0.027,-0.005,0.022,-8.73,50.76,0
1711709.0,0.002,0.028,0.019,55.48,-6.37,0
1711714.0,0.036,-0.015,0.022,-19.57,-58.68,0
1711719.0,-0.043,-0.005,-0.021,-6.22,116.27,0
1711724.0,0.014,-0.034,0.0,-67.44,-89.35,0
1711729.0,-0.024,0.002,0.034,2.65,35.68,0
1711734.0,-0.003,-0.005,-0.038,-7.84,176.05,0
1711739.0,0.002,0.009,-0.014,32.34,-171.37,0
1711744.0,-0.0,0.004,0.036,6.81,0.38,0
1711749.0,0.024,-0.01,-0.009,-21.52,-111.67,0
1711754.0,-0.019,0.021,0.017,39.31,48.9,0
1711759.0,-0.027,0.014,0.003,27.48,84.51,0
1711764.0,0.012,0.007,-0.007,26.12,-120.9,0
1711769.0,0.005,-0.0,0.041,-0.67,-6.35,0
1711774.0,0.019,0.007,-0.024,12.44,-141.5,0
1711779.0,0.04,0.014,0.0,18.94,-89.77,0
1711784.0,0.026,-0.01,-0.024,-15.9,-132.34,0
1711789.0,0.021,-0.003,-0.029,-4.61,-143.28,0
1711794.0,-0.007,0.019,-0.007,61.32,133.41,0
1711799.0,0.002,-0.003,0.038,-4.26,-3.21,0
1711804.0,0.014,-0.005,0.005,-19.39,-70.69,0
1711809.0,0.005,-0.029,0.019,-55.81,-13.25,0
1711814.0,0.002,-0.01,0.031,-17.78,-3.94,0
1711819.0,-0.015,0.016,-0.014,38.63,134.21,0
1711824.0,0.019,0.007,0.055,6.55,-18.91,0
1711829.0,0.017,0.007,0.015,16.95,-48.68,0
1711834.0,-0.007,0.014,-0.007,53.66,133.41,0
1711839.0,0.005,-0.005,-0.012,-22.6,-158.93,0
1711844.0,0.019,-0.003,0.022,-5.7,-41.07,0
1711849.0,-0.01,-0.003,-0.017,-8.47,149.4,0
1711854.0,-0.0,-0.005,-0.012,-24.03,178.84,0
1711859.0,0.002,0.019,0.024,37.66,-5.11,0
1711864.0,0.014,0.009,-0.017,22.66,-139.6,0
1711869.0,0.021,0.021,0.041,24.57,-27.54,0
1711874.0,0.009,-0.017,0.029,-29.59,-17.91,0
1711879.0,0.009,-0.003,0.005,-15.21,-62.08,0
1711884.0,0.017,0.002,-0.005,6.37,-105.65,0
1711889.0,-0.015,0.035,-0.007,65.42,115.68,0
1711894.0,-0.0,0.009,0.046,11.27,0.3,0
1711899.0,-0.024,-0.005,-0.009,-11.47,111.28,0
1711904.0,-0.022,0.035,-0.017,52.3,127.3,0
1711909.0,0.012,0.007,0.003,29.18,-77.71,0
1711914.0,-0.012,-0.01,-0.002,-39.01,100.37,0
1711919.0,-0.017,0.026,0.038,31.58,23.84,0
1711924.0,0.007,-0.024,0.038,-32.0,-10.23,0
1711929.0,0.026,-0.022,0.024,-31.8,-47.28,0
1711934.0,0.019,0.014,0.067,11.25,-15.72,0
1711939.0,-0.019,-0.012,-0.005,-31.98,103.42,0
1711944.0,0.031,0.002,0.029,2.59,-46.91,0
1711949.0,0.012,0.002,0.026,3.78,-23.88,0
1711954.0,-0.012,0.007,0.015,19.46,40.05,0
1711959.0,-0.003,0.011,0.0,77.07,86.52,0
1711964.0,0.028,0.009,-0.007,17.23,-103.85,0
1711969.0,0.007,-0.003,0.034,-4.78,-11.65,0
1711974.0,-0.005,0.004,-0.014,15.96,160.51,0
1711979.0,0.012,0.045,-0.014,67.74,-140.45,0
1711984.0,0.017,0.009,0.019,19.7,-40.54,0
1711989.0,0.017,-0.044,-0.009,-66.42,-119.68,0
1711994.0,-0.015,-0.012,-0.019,-27.46,142.44,0
1711999.0,0.002,-0.02,-0.024,-39.43,-174.82,0
1712004.0,0.002,0.011,0.022,27.78,-5.67,0
1712009.0,-0.01,-0.008,-0.012,-26.51,140.27,0
1712014.0,-0.003,-0.008,-0.026,-16.24,174.25,0
1712019.0,0.026,0.011,0.026,17.17,-44.56,0
1712024.0,-0.031,-0.022,-0.019,-30.99,121.2,0
1712029.0,-0.01,0.011,0.031,19.32,17.42,0
1712034.0,0.021,-0.005,-0.017,-11.03,-127.92,0
1712039.0,-0.019,0.011,-0.002,30.49,96.57,0
1712044.0,-0.005,-0.012,-0.017,-35.67,163.15,0
1712049.0,-0.019,-0.008,-0.019,-15.76,134.4,0
1712054.0,0.024,0.023,-0.019,37.69,-128.71,0
1712059.0,0.017,0.002,-0.002,6.55,-97.7,0
1712064.0,-0.017,0.011,0.012,28.82,54.49,0
1712069.0,0.007,-0.022,-0.012,-58.12,-149.55,0
1712074.0,0.04,-0.003,0.029,-3.31,-54.47,0
1712079.0,-0.017,-0.0,-0.041,-0.62,157.25,0
1712084.0,0.017,-0.012,-0.005,-35.97,-105.65,0
1712089.0,0.021,0.028,0.017,46.08,-51.55,0
1712094.0,0.002,-0.01,-0.007,-53.85,-162.94,0
1712099.0,0.019,-0.003,0.012,-7.29,-57.32,0
1712104.0,0.009,-0.0,0.024,-1.06,-21.18,0
1712109.0,0.014,-0.024,-0.012,-52.98,-129.9,0
1712114.0,-0.012,-0.008,0.007,-28.27,58.98,0
1712119.0,0.009,-0.015,-0.041,-19.64,-167.03,0
1712124.0,-0.0,-0.024,-0.002,-84.74,173.88,0
1712129.0,-0.024,0.019,0.0,37.68,89.62,0
1712134.0,0.007,-0.01,0.026,-20.16,-14.68,0
1712139.0,0.009,-0.008,0.003,-38.36,-74.7,0
1712144.0,0.043,-0.024,0.01,-29.06,-77.2,0
1712149.0,-0.003,0.009,0.017,27.98,8.85,0
1712154.0,-0.003,-0.01,0.005,-60.86,28.02,0
1712159.0,0.007,-0.02,-0.019,-44.15,-159.92,0
1712164.0,-0.0,-0.029,0.029,-45.31,0.47,0
1712169.0,-0.007,0.011,0.003,55.67,71.0,0
1712174.0,0.005,0.007,0.005,44.92,-42.59,0
1712179.0,0.002,0.04,0.038,46.23,-3.21,0
1712184.0,0.019,0.014,0.019,27.19,-44.4,0
1712189.0,-0.01,-0.017,-0.017,-41.79,149.4,0
1712194.0,0.014,-0.003,-0.012,-8.87,-129.9,0
1712199.0,-0.007,0.004,-0.007,22.87,133.41,0
1712204.0,-0.0,-0.01,0.041,-13.82,0.34,0
1712209.0,0.005,-0.027,-0.017,-57.31,-164.67,0
1712214.0,-0.0,0.011,0.041,15.71,0.34,0
1712219.0,0.021,0.002,0.017,4.03,-51.55,0
1712224.0,0.005,0.019,-0.024,37.64,-169.17,0
1712229.0,0.007,0.021,-0.019,46.17,-159.92,0
1712234.0,0.009,-0.027,0.022,-48.61,-23.27,0
1712239.0,0.002,0.004,0.005,38.61,-23.53,0
1712244.0,-0.007,0.021,0.007,63.64,45.31,0
1712249.0,0.009,-0.015,0.003,-56.89,-74.7,0
1712254.0,-0.017,0.007,0.0,21.52,89.46,0
1712259.0,-0.007,-0.008,-0.007,-36.86,133.41,0
1712264.0,0.014,-0.0,-0.038,-0.67,-159.68,0
1712269.0,-0.003,-0.01,0.007,-52.2,19.73,0
1712274.0,0.014,0.009,-0.033,14.1,-157.05,0
1712279.0,0.005,0.019,0.012,55.25,-20.55,0
1712284.0,-0.01,0.011,0.0,49.49,89.06,0
1712289.0,0.038,-0.039,-0.036,-36.6,-133.2,0
1712294.0,-0.015,-0.017,-0.074,-12.86,168.84,0
1712299.0,0.026,0.009,-0.014,17.02,-118.56,0
1712304.0,-0.017,0.021,0.012,45.25,54.49,0
1712309.0,0.007,-0.008,-0.002,-46.41,-107.83,0
1712314.0,0.007,-0.0,-0.007,-2.78,-135.32,0
1712319.0,-0.019,0.026,-0.017,45.37,130.56,0
1712324.0,0.012,0.004,0.031,7.35,-20.56,0
1712329.0,-0.01,-0.022,-0.06,-20.01,170.66,0
1712334.0,-0.003,-0.02,0.01,-62.81,15.13,0
1712339.0,0.002,-0.022,0.0,-84.4,-85.75,0
1712344.0,0.007,-0.008,0.019,-20.47,-19.77,0
1712349.0,0.005,-0.034,-0.06,-29.59,-175.64,0
1712354.0,0.017,-0.02,-0.021,-36.0,-142.32,0
1712359.0,0.009,-0.036,-0.007,-72.2,-126.94,0
1712364.0,0.005,0.011,-0.017,33.73,-164.67,0
1712369.0,0.002,-0.02,0.0,-83.72,-85.75,0
1712374.0,0.024,0.014,0.005,29.83,-78.21,0
1712379.0,-0.012,0.011,-0.014,31.53,139.32,0
1712384.0,0.017,0.004,0.015,11.08,-48.68,0
1712389.0,-0.0,0.023,-0.002,84.53,173.88,0
1712394.0,0.005,0.023,0.029,38.74,-8.95,0
1712399.0,-0.017,-0.022,-0.029,-33.53,149.25,0
1712404.0,-0.019,0.002,0.026,3.34,36.2,0
1712409.0,-0.005,0.016,-0.033,25.76,171.43,0
1712414.0,0.007,0.011,-0.005,54.02,-123.69,0
1712419.0,0.005,0.021,0.029,35.77,-8.95,0
1712424.0,0.007,-0.008,0.012,-28.73,-29.78,0
1712429.0,0.014,0.002,0.031,3.19,-24.3,0
1712434.0,-0.015,-0.012,0.017,-29.12,40.8,0
1712439.0,-0.007,-0.005,0.029,-10.01,14.41,0
1712444.0,0.007,0.004,-0.017,13.47,-157.3,0
1712449.0,0.017,-0.017,0.012,-40.07,-53.71,0
1712454.0,0.024,0.009,0.007,20.14,-72.79,0
1712459.0,-0.01,-0.01,-0.014,-30.22,145.35,0
1712464.0,-0.019,0.009,-0.021,17.49,137.8,0
1712469.0,-0.007,0.002,-0.055,1.98,172.3,0
1712474.0,-0.041,-0.003,-0.026,-3.38,122.59,0
1712479.0,0.014,0.002,0.012,5.87,-49.34,0
1712484.0,0.014,-0.008,0.019,-17.75,-36.18,0
1712489.0,0.005,-0.027,0.01,-68.16,-25.04,0
1712494.0,-0.007,0.004,-0.036,6.73,168.27,0
1712499.0,0.014,0.026,0.01,56.44,-55.42,0
1712504.0,-0.024,0.004,-0.026,6.9,137.27,0
1712509.0,-0.005,-0.008,-0.007,-41.58,144.4,0
1712514.0,-0.0,0.028,0.007,75.42,1.87,0
1712519.0,-0.01,0.016,-0.043,20.29,167.12,0
1712524.0,0.014,-0.024,-0.009,-55.19,-123.69,0
1712529.0,-0.029,0.019,-0.002,32.73,94.41,0
1712534.0,-0.022,0.023,0.034,30.33,32.9,0
1712539.0,0.06,0.007,0.05,4.91,-49.77,0
1712544.0,-0.086,-0.017,0.01,-11.21,83.57,0
1712549.0,0.062,0.002,0.024,1.65,-68.76,0
1712554.0,-0.086,0.031,-0.067,15.66,127.73,0
1712559.0,0.019,-0.07,0.015,-71.16,-52.48,0
1712564.0,0.017,0.098,0.022,74.4,-37.27,0
1712569.0,-0.242,-0.156,-0.148,-28.81,121.49,0
1712574.0,0.402,-0.216,0.247,-24.6,-58.46,0
1712579.0,-0.596,0.251,-0.112,22.46,100.67,0
1712584.0,0.103,0.349,-0.515,33.63,-168.71,0
1712589.0,-0.149,0.047,0.082,15.62,61.25,0
1712594.0,0.165,-0.815,0.216,-71.57,-37.42,0
1712599.0,-0.125,-0.453,-0.175,-64.65,144.46,0
1712604.0,0.062,0.284,0.06,73.12,-45.94,0
1712609.0,0.127,0.375,0.295,49.49,-23.26,0
1712614.0,0.11,-0.637,0.18,-71.71,-31.44,0
1712619.0,-0.319,0.203,0.18,29.03,60.58,0
1712624.0,-0.141,-0.041,-0.359,-6.09,158.49,0
1712629.0,0.244,0.62,-0.627,42.64,-158.74,0
1712634.0,-0.831,-1.102,-0.941,-41.28,138.54,0
1712639.0,0.385,0.019,0.943,1.05,-22.21,0
1712644.0,-0.055,0.105,0.702,8.47,4.51,0
1712649.0,-0.043,0.466,-1.025,24.46,177.58,0
1712654.0,-0.072,-0.137,0.386,-19.24,10.59,0
1712659.0,0.258,0.493,1.188,22.07,-12.27,0
1712664.0,-0.323,-0.374,-0.057,-48.7,100.05,0
1712669.0,0.218,0.517,-0.543,41.44,-158.17,0
1712674.0,-0.515,-0.439,-0.433,-33.1,130.07,0
1712679.0,0.309,0.074,0.082,13.01,-75.2,0
1712684.0,-0.127,-0.589,-0.34,-58.39,159.49,0
1712689.0,0.242,0.289,0.273,38.42,-41.49,0
1712694.0,-0.244,-0.058,0.323,-8.13,37.09,0
1712699.0,0.277,0.442,0.175,53.45,-57.77,0
1712704.0,-0.414,-0.436,-0.816,-25.48,153.08,0
1712709.0,0.1,0.167,0.005,58.99,-87.18,0
1712714.0,-0.498,-0.118,0.012,-13.3,88.61,0
1712719.0,0.187,0.454,-0.232,56.77,-141.21,0
1712724.0,-0.321,-0.446,-0.421,-40.09,142.68,0
1712729.0,0.196,0.318,0.244,45.42,-38.74,0
1712734.0,-0.221,0.007,-0.309,1.01,144.46,0
1712739.0,0.218,0.476,0.053,64.8,-76.35,0
1712744.0,-0.357,-0.324,0.472,-28.68,37.11,0
1712749.0,0.177,0.205,0.137,42.58,-52.32,0
1712754.0,-0.367,-0.364,-0.364,-35.21,134.78,0
1712759.0,0.165,0.383,0.146,60.05,-48.45,0
1712764.0,-0.297,-0.075,0.273,-10.49,47.41,0
1712769.0,0.242,0.213,0.036,41.04,-81.51,0
1712774.0,-0.379,-0.249,-0.12,-32.15,107.53,0
1712779.0,0.222,0.335,0.252,44.91,-41.48,0
1712784.0,-0.345,-0.261,0.137,-35.17,68.4,0
1712789.0,0.093,0.083,-0.117,29.1,-141.52,0
1712794.0,-0.338,-0.197,-0.041,-30.05,96.84,0
1712799.0,0.187,0.275,0.316,36.82,-30.53,0
1712804.0,-0.244,-0.271,0.062,-47.05,75.68,0
1712809.0,0.194,0.124,-0.179,25.16,-132.81,0
1712814.0,-0.225,-0.259,0.043,-48.47,79.13,0
1712819.0,0.376,0.299,0.225,34.3,-59.06,0
1712824.0,-0.278,-0.326,-0.005,-49.55,90.95,0
1712829.0,0.38,0.213,0.086,28.59,-77.21,0
1712834.0,-0.273,-0.269,0.225,-37.19,50.5,0
1712839.0,0.412,0.318,0.297,32.06,-54.18,0
1712844.0,-0.328,-0.295,-0.096,-40.79,106.24,0
1712849.0,0.316,0.241,0.017,37.35,-86.93,0
1712854.0,-0.177,-0.264,0.038,-55.47,77.77,0
1712859.0,0.517,0.316,0.144,30.46,-74.45,0
1712864.0,-0.237,-0.357,-0.005,-56.4,91.12,0
1712869.0,0.421,0.354,0.185,37.58,-66.34,0
1712874.0,-0.297,-0.367,0.048,-50.63,80.81,0
1712879.0,0.421,0.337,0.091,38.04,-77.79,0
1712884.0,-0.484,-0.381,-0.132,-37.24,105.21,0
1712889.0,0.266,0.464,0.089,58.9,-71.52,0
1712894.0,-0.319,-0.393,0.113,-49.31,70.53,0
1712899.0,0.433,0.215,0.125,25.5,-73.94,0
1712904.0,-0.371,-0.4,-0.184,-44.0,116.38,0
1712909.0,0.443,0.39,0.062,41.08,-81.98,0
1712914.0,-0.331,-0.348,0.007,-46.43,88.73,0
1712919.0,0.222,0.387,-0.029,59.93,-97.32,0
1712924.0,-0.592,-0.429,-0.177,-34.79,106.66,0
1712929.0,0.404,0.44,0.161,45.32,-68.34,0
1712934.0,-0.491,-0.381,0.024,-37.79,87.19,0
1712939.0,0.359,0.447,0.019,51.21,-86.92,0
1712944.0,-0.276,-0.652,-0.237,-60.86,130.68,0
1712949.0,-0.848,0.22,-0.067,14.49,94.51,0
1712954.0,0.084,-0.259,-0.026,-71.32,-107.39,0
1712959.0,0.553,0.5,0.098,41.68,-79.92,0
1712964.0,-0.51,-0.482,-0.057,-43.18,96.41,0
1712969.0,0.263,0.27,0.338,32.24,-37.92,0
1712974.0,-0.656,-0.216,0.168,-17.68,75.66,0
1712979.0,0.297,0.426,-0.017,55.09,-93.2,0
1712984.0,-0.4,-0.439,-0.124,-46.31,107.26,0
1712989.0,0.632,0.538,0.163,39.52,-75.54,0
1712994.0,-0.242,-0.561,-0.414,-49.46,149.69,0
1712999.0,0.543,0.574,-0.081,46.27,-98.51,0
1713004.0,-0.52,-0.503,0.05,-43.94,84.46,0
1713009.0,0.354,0.462,-0.024,52.45,-93.84,0
1713014.0,-0.695,-0.501,-0.196,-34.76,105.77,0
1713019.0,0.325,0.533,0.469,43.04,-34.73,0
1713024.0,-0.402,-0.424,0.211,-43.04,62.35,0
1713029.0,0.244,0.438,-0.194,54.55,-128.46,0
1713034.0,-0.254,-0.527,-0.189,-59.01,126.65,0
1713039.0,0.517,0.457,0.335,36.55,-57.03,0
1713044.0,-0.278,-0.417,-0.038,-56.07,97.81,0
1713049.0,0.519,0.471,-0.062,42.02,-96.82,0
1713054.0,-0.319,-0.534,-0.203,-54.72,122.54,0
1713059.0,0.412,0.419,-0.069,45.08,-99.55,0
1713064.0,-0.52,-0.498,-0.359,-38.28,124.63,0
1713069.0,0.4,0.481,0.062,49.93,-81.12,0
1713074.0,-1.844,-0.532,0.12,-16.06,86.28,0
1713079.0,0.337,0.186,0.565,15.8,-30.83,0
1713084.0,0.244,-0.321,0.347,-37.13,-35.09,0
1713089.0,0.057,0.39,0.196,62.3,-16.24,0
1713094.0,-0.431,-0.51,-0.462,-38.93,136.97,0
1713099.0,0.22,0.306,-0.507,28.95,-156.56,0
1713104.0,-0.4,-0.628,-0.46,-45.86,138.96,0
1713109.0,0.424,0.395,-0.014,42.96,-91.92,0
1713114.0,-0.232,-0.489,-0.22,-56.78,133.43,0
1713119.0,0.256,0.584,0.161,62.63,-57.9,0
1713124.0,-0.41,-0.436,-0.043,-46.64,95.98,0
1713129.0,0.227,0.402,0.005,60.5,-88.75,0
1713134.0,-0.695,-0.477,-0.313,-32.04,114.29,0
1713139.0,0.431,0.43,0.153,43.27,-70.4,0
1713144.0,-0.532,-0.419,-0.084,-37.93,98.94,0
1713149.0,0.361,0.399,-0.057,47.51,-99.01,0
1713154.0,-0.264,-0.386,-0.254,-46.53,133.89,0
1713159.0,0.349,0.49,0.146,52.32,-67.29,0
1713164.0,-0.316,-0.431,-0.232,-47.72,126.27,0
1713169.0,0.371,0.454,-0.055,50.48,-98.42,0
1713174.0,-0.331,-0.47,-0.163,-51.89,116.19,0
1713179.0,0.282,0.471,0.12,56.94,-66.99,0
1713184.0,-0.505,-0.501,-0.182,-43.0,109.78,0
1713189.0,0.292,0.536,0.182,57.3,-58.04,0
1713194.0,-0.429,-0.494,-0.017,-49.0,92.22,0
1713199.0,0.287,0.512,0.058,60.23,-78.65,0
1713204.0,-0.405,-0.446,-0.249,-43.17,121.58,0
1713209.0,0.345,0.414,0.122,48.53,-70.46,0
1713214.0,-0.323,-0.295,0.11,-40.8,71.17,0
1713219.0,0.342,0.423,0.091,50.09,-75.08,0
1713224.0,-0.369,-0.496,-0.352,-44.22,133.64,0
1713229.0,0.452,0.363,0.029,38.73,-86.34,0
1713234.0,0.117,-0.415,-0.148,-65.51,-141.71,0
1713239.0,0.017,0.624,0.005,88.42,-73.32,0
1713244.0,-0.24,-0.372,-0.22,-48.79,132.56,0
1713249.0,0.249,0.186,0.117,34.1,-64.72,0
1713254.0,-0.441,-0.319,0.12,-34.92,74.79,0
1713259.0,0.325,0.361,0.091,46.9,-74.35,0
1713264.0,-0.383,-0.355,-0.33,-35.04,130.75,0
1713269.0,0.313,0.217,0.046,34.47,-81.71,0
1713274.0,-0.362,-0.439,0.106,-49.33,73.74,0
1713279.0,0.457,0.617,0.328,47.65,-54.32,0
1713284.0,-0.364,-0.34,-0.318,-35.14,131.15,0
1713289.0,0.194,0.306,-0.28,41.95,-145.32,0
1713294.0,-0.355,0.083,0.297,10.21,50.05,0
1713299.0,0.208,0.476,0.108,63.78,-62.59,0
1713304.0,-0.429,-0.264,-0.158,-30.0,110.21,0
1713309.0,0.239,0.28,0.048,48.9,-78.64,0
1713314.0,-0.505,-0.4,-0.246,-35.45,115.99,0
1713319.0,0.21,0.313,-0.041,55.61,-100.9,0
1713324.0,-0.352,-0.202,0.079,-29.18,77.33,0
1713329.0,0.239,0.375,0.199,50.36,-50.26,0
1713334.0,-0.156,-0.204,-0.452,-23.09,160.99,0
1713339.0,0.249,0.328,0.077,51.52,-72.85,0
1713344.0,-0.151,-0.249,0.558,-23.34,15.15,0
1713349.0,0.742,0.356,0.216,24.75,-73.79,0
1713354.0,-0.221,-0.575,-0.369,-53.25,149.11,0
1713359.0,0.05,0.356,-0.086,74.39,-149.82,0
1713364.0,-0.244,-0.283,0.247,-39.17,44.73,0
1713369.0,0.151,0.332,0.204,52.68,-36.48,0
1713374.0,-0.39,-0.084,-0.048,-12.09,96.97,0
1713379.0,0.234,-0.084,-0.038,-19.54,-99.24,0
1713384.0,-0.333,-0.084,0.132,-13.24,68.4,0
1713389.0,0.359,0.158,0.132,22.39,-69.83,0
1713394.0,-0.407,-0.137,0.137,-17.68,71.45,0
1713399.0,0.139,0.076,0.132,21.7,-46.44,0
1713404.0,-0.319,-0.175,0.005,-28.81,89.11,0
1713409.0,0.119,0.143,0.127,39.38,-43.24,0
1713414.0,-0.381,-0.058,0.11,-8.31,73.85,0
1713419.0,0.153,-0.008,0.146,-2.07,-46.3,0
1713424.0,-0.244,-0.139,0.115,-27.28,64.79,0
1713429.0,0.361,0.028,0.024,4.46,-86.18,0
1713434.0,-0.206,-0.19,-0.096,-39.84,114.88,0
1713439.0,0.428,0.148,0.036,18.99,-85.19,0
1713444.0,-0.134,-0.218,0.17,-45.21,38.29,0
1713449.0,0.507,0.222,0.264,21.24,-62.55,0
1713454.0,-0.311,-0.123,-0.029,-21.4,95.24,0
1713459.0,0.486,0.203,-0.055,22.55,-96.45,0
1713464.0,-0.383,-0.328,-0.012,-40.58,91.76,0
1713469.0,0.285,0.074,0.07,14.12,-76.26,0
1713474.0,-0.369,-0.182,0.098,-25.54,75.08,0
1713479.0,0.325,0.222,0.256,28.21,-51.77,0
1713484.0,-0.34,-0.245,0.132,-33.85,68.82,0
1713489.0,0.383,0.167,0.058,23.35,-81.44,0
1713494.0,-0.254,-0.158,0.058,-31.32,77.22,0
1713499.0,0.431,0.301,0.204,32.3,-64.69,0
1713504.0,-0.261,-0.357,-0.031,-53.63,96.76,0
1713509.0,0.38,0.249,-0.053,32.91,-97.86,0
1713514.0,-0.355,-0.386,-0.148,-45.12,112.69,0
1713519.0,0.361,0.387,0.165,44.27,-65.41,0
1713524.0,-0.402,-0.348,0.074,-40.34,79.53,0
1713529.0,0.436,0.27,0.17,30.01,-68.66,0
1713534.0,-0.309,-0.326,0.005,-46.53,89.08,0
1713539.0,0.457,0.311,0.201,31.89,-66.23,0
1713544.0,-0.335,-0.271,-0.012,-38.92,92.02,0
1713549.0,0.421,0.222,-0.029,27.76,-93.88,0
1713554.0,-0.285,-0.369,-0.151,-48.86,117.85,0
1713559.0,0.479,0.275,0.185,28.18,-68.92,0
1713564.0,-0.412,-0.367,0.086,-41.06,78.16,0
1713569.0,0.349,0.368,0.031,46.4,-84.88,0
1713574.0,-0.41,-0.285,0.074,-34.43,79.71,0
1713579.0,0.299,0.428,0.151,51.96,-63.21,0
1713584.0,-0.307,-0.431,-0.139,-52.04,114.33,0
1713589.0,0.488,0.32,0.089,32.85,-79.7,0
1713594.0,-0.3,-0.475,0.012,-57.72,87.68,0
1713599.0,0.407,0.486,0.07,49.64,-80.29,0
1713604.0,-0.446,-0.51,-0.045,-48.74,95.81,0
1713609.0,0.419,0.55,0.158,50.87,-69.31,0
1713614.0,-0.379,-0.407,0.062,-46.73,80.64,0
1713619.0,0.349,0.404,-0.019,49.12,-93.11,0
1713624.0,-0.417,-0.53,-0.141,-50.28,108.7,0
1713629.0,0.407,0.392,0.218,40.36,-61.81,0
1713634.0,-0.379,-0.247,0.055,-32.86,81.7,0
1713639.0,0.524,0.356,-0.045,34.11,-94.94,0
1713644.0,-0.407,-0.53,-0.196,-49.52,115.72,0
1713649.0,0.483,0.371,0.273,33.72,-60.53,0
1713654.0,-0.161,-0.261,0.019,-58.25,83.14,0
1713659.0,0.45,0.351,-0.088,37.47,-101.12,0
1713664.0,-0.58,-0.537,-0.117,-42.23,101.43,0
1713669.0,0.663,0.45,0.309,31.58,-65.01,0
1713674.0,-0.431,-0.376,-0.072,-40.73,99.44,0
1713679.0,0.289,0.603,-0.232,58.39,-128.72,0
1713684.0,-0.522,-0.573,-0.053,-47.5,95.74,0
1713689.0,0.232,0.399,0.445,38.49,-27.51,0
1713694.0,-0.532,-0.422,-0.012,-38.42,91.27,0
1713699.0,0.44,0.505,0.007,48.89,-89.04,0
1713704.0,-0.271,-0.379,-0.041,-54.14,98.52,0
1713709.0,0.692,0.407,0.199,29.46,-73.96,0
1713714.0,-0.173,-0.522,-0.282,-57.65,148.56,0
1713719.0,0.44,0.498,-0.041,48.37,-95.26,0
1713724.0,-0.489,-0.403,-0.172,-37.86,109.41,0
1713729.0,0.323,0.517,0.05,57.68,-81.12,0
1713734.0,-0.637,-0.475,-0.143,-36.0,102.69,0
1713739.0,0.277,0.536,0.122,60.49,-66.22,0
1713744.0,-0.522,-0.515,0.024,-44.59,87.36,0
1713749.0,0.373,0.442,0.034,49.73,-84.84,0
1713754.0,-0.362,-0.451,-0.223,-46.69,121.59,0
1713759.0,0.495,0.507,0.117,44.89,-76.66,0
1713764.0,-0.302,-0.477,0.019,-57.61,86.34,0
1713769.0,0.565,0.44,0.108,37.43,-79.18,0
1713774.0,-0.481,-0.458,-0.218,-40.9,114.33,0
1713779.0,0.395,0.524,0.177,50.44,-65.81,0
1713784.0,-0.52,-0.446,0.062,-40.42,83.15,0
1713789.0,0.196,0.397,0.139,58.8,-54.66,0
1713794.0,-0.496,-0.467,-0.242,-40.27,115.98,0
1713799.0,0.349,0.646,0.129,60.03,-69.67,0
1713804.0,-0.362,-0.52,-0.158,-52.8,113.57,0
1713809.0,0.402,0.402,-0.076,44.47,-100.77,0
1713814.0,-0.326,-0.441,0.086,-52.61,75.16,0
1713819.0,0.431,0.524,0.043,50.43,-84.27,0
1713824.0,-0.438,-0.446,-0.23,-42.01,117.65,0
1713829.0,0.27,0.299,0.149,44.09,-61.2,0
1713834.0,-0.549,-0.319,0.062,-30.01,83.51,0
1713839.0,0.354,0.371,0.273,39.65,-52.36,0
1713844.0,-0.414,-0.348,-0.179,-37.59,113.41,0
1713849.0,0.409,0.354,-0.043,40.7,-95.99,0
1713854.0,-0.331,-0.53,0.106,-56.76,72.3,0
1713859.0,0.524,0.651,-0.029,51.11,-93.12,0
1713864.0,-0.431,-0.506,-0.249,-45.45,119.99,0
1713869.0,0.285,0.433,0.065,56.0,-77.18,0
1713874.0,-0.458,-0.364,0.012,-38.53,88.48,0
1713879.0,0.203,0.495,0.204,59.84,-44.94,0
1713884.0,-0.62,-0.403,-0.273,-30.72,113.74,0
1713889.0,0.254,0.342,0.046,53.0,-79.79,0
1713894.0,-0.379,0.124,0.082,17.76,77.84,0
1713899.0,0.397,0.447,0.019,48.36,-87.22,0
1713904.0,-0.204,-0.415,-0.127,-59.94,121.88,0
1713909.0,0.402,0.344,-0.007,40.57,-91.0,0
1713914.0,-0.355,-0.477,-0.297,-45.89,129.92,0
1713919.0,0.287,0.481,0.153,55.9,-61.88,0
1713924.0,-0.525,-0.403,-0.017,-37.5,91.81,0
1713929.0,0.208,0.342,0.01,58.65,-87.32,0
1713934.0,-0.199,0.179,0.108,38.35,61.53,0
1713939.0,0.23,0.471,0.084,62.58,-69.91,0
1713944.0,-0.319,-0.374,0.11,-47.96,70.91,0
1713949.0,0.328,0.339,-0.05,45.68,-98.69,0
1713954.0,-0.211,-0.379,0.005,-60.88,88.66,0
1713959.0,0.309,0.395,-0.021,51.9,-93.96,0
1713964.0,-0.273,-0.23,0.058,-39.52,78.09,0
1713969.0,0.232,0.265,0.072,47.52,-72.76,0
1713974.0,-0.235,0.043,0.139,8.87,59.38,0
1713979.0,0.184,-0.039,0.003,-11.9,-89.2,0
1713984.0,-0.367,-0.029,0.019,-4.55,86.98,0
1713989.0,0.16,-0.044,0.079,-13.71,-63.7,0
1713994.0,-0.4,0.011,0.079,1.61,78.81,0
1713999.0,0.34,-0.017,0.096,-2.8,-74.23,0
1714004.0,-0.244,0.035,0.05,8.08,78.34,0
1714009.0,0.335,-0.039,-0.091,-6.38,-105.17,0
1714014.0,-0.13,0.059,-0.105,19.59,129.08,0
1714019.0,0.306,-0.154,0.048,-26.38,-81.08,0
1714024.0,-0.12,-0.115,0.196,-26.62,31.4,0
1714029.0,0.273,0.062,0.11,11.86,-67.98,0
1714034.0,-0.185,-0.075,0.165,-16.77,48.15,0
1714039.0,0.194,0.076,0.149,17.32,-52.5,0
1714044.0,-0.276,-0.039,0.079,-7.7,73.97,0
1714049.0,0.33,-0.082,0.029,-13.88,-85.0,0
1714054.0,-0.24,0.038,0.161,7.47,56.18,0
1714059.0,0.318,-0.029,0.077,-5.1,-76.43,0
1714064.0,-0.228,-0.051,-0.153,-10.48,123.91,0
1714069.0,0.383,0.014,0.06,2.05,-81.09,0
1714074.0,-0.206,-0.012,0.201,-2.47,45.68,0
1714079.0,0.342,0.031,0.125,4.81,-69.98,0
1714084.0,-0.228,-0.125,0.098,-26.74,66.64,0
1714089.0,0.376,0.095,0.046,14.13,-83.07,0
1714094.0,-0.235,-0.151,-0.091,-31.0,111.14,0
1714099.0,0.371,0.052,-0.024,7.99,-93.67,0
1714104.0,-0.326,-0.089,0.06,-15.05,79.56,0
1714109.0,0.352,0.131,0.101,19.73,-74.02,0
1714114.0,-0.355,-0.06,0.132,-9.06,69.6,0
1714119.0,0.287,0.119,0.299,16.04,-43.79,0
1714124.0,-0.407,-0.202,-0.005,-26.33,90.65,0
1714129.0,0.33,-0.024,-0.148,-3.86,-114.19,0
1714134.0,-0.182,-0.18,0.041,-43.96,77.36,0
1714139.0,0.529,0.268,0.24,24.75,-65.63,0
1714144.0,-0.256,-0.273,-0.251,-37.29,134.41,0
1714149.0,0.376,0.184,-0.316,20.54,-130.06,0
1714154.0,-0.283,-0.297,0.158,-42.55,60.78,0
1714159.0,0.325,0.287,0.465,26.82,-35.0,0
1714164.0,-0.426,-0.326,0.005,-37.4,89.34,0
1714169.0,0.342,0.296,0.06,40.47,-80.05,0
1714174.0,-0.328,-0.247,0.266,-30.32,50.99,0
1714179.0,0.433,0.28,0.115,31.96,-75.12,0
1714184.0,-0.371,-0.446,-0.278,-43.88,126.78,0
1714189.0,0.433,0.347,0.115,37.73,-75.12,0
1714194.0,-0.254,-0.283,0.194,-41.52,52.62,0
1714199.0,0.416,0.275,-0.081,32.94,-101.04,0
1714204.0,-0.146,-0.338,-0.29,-46.18,153.2,0
1714209.0,0.421,0.33,0.153,36.36,-69.99,0
1714214.0,-0.47,-0.261,0.0,-29.11,89.98,0
1714219.0,0.361,0.217,0.024,30.98,-86.18,0
1714224.0,-0.405,-0.326,0.163,-36.77,68.07,0
1714229.0,0.318,0.27,0.156,37.32,-63.91,0
1714234.0,-0.434,-0.293,-0.335,-28.1,127.69,0
1714239.0,0.476,0.397,0.156,38.39,-71.89,0
1714244.0,-0.323,-0.419,0.319,-42.74,45.43,0
1714249.0,0.428,0.328,-0.026,37.35,-93.5,0
1714254.0,-0.402,-0.467,-0.385,-39.99,133.75,0
1714259.0,0.503,0.495,0.29,40.48,-60.02,0
1714264.0,-0.376,-0.491,0.24,-47.77,57.5,0
1714269.0,0.421,0.486,0.053,48.84,-82.85,0
1714274.0,-0.371,-0.52,-0.05,-54.22,97.69,0
1714279.0,0.438,0.423,0.302,38.52,-55.42,0
1714284.0,-0.448,-0.345,-0.076,-37.22,99.69,0
1714289.0,0.471,0.335,-0.009,35.37,-91.14,0
1714294.0,-0.35,-0.355,0.01,-45.4,88.41,0
1714299.0,0.412,0.342,-0.105,38.83,-104.34,0
1714304.0,-0.381,-0.439,-0.354,-40.14,132.92,0
1714309.0,0.498,0.462,0.228,40.14,-65.43,0
1714314.0,-0.355,-0.328,0.29,-35.65,50.74,0
1714319.0,0.392,0.368,0.055,42.9,-81.99,0
1714324.0,-0.479,-0.439,-0.278,-38.39,120.09,0
1714329.0,0.517,0.43,0.304,35.67,-59.52,0
1714334.0,-0.434,-0.484,0.12,-47.1,74.55,0
1714339.0,0.323,0.474,0.031,55.58,-84.47,0
1714344.0,-0.436,-0.539,0.01,-51.03,88.72,0
1714349.0,0.464,0.486,0.287,41.64,-58.23,0
1714354.0,-0.35,-0.415,-0.352,-39.89,135.16,0
1714359.0,0.428,0.416,-0.227,40.63,-117.95,0
1714364.0,-0.304,-0.501,0.113,-57.06,69.68,0
1714369.0,0.562,0.517,0.407,36.65,-54.1,0
1714374.0,-0.374,-0.448,-0.194,-46.79,117.41,0
1714379.0,0.371,0.514,-0.1,53.24,-105.15,0
1714384.0,-0.474,-0.532,0.074,-47.94,81.09,0
1714389.0,0.273,0.399,0.321,43.48,-40.35,0
1714394.0,-0.493,-0.264,-0.043,-28.04,94.97,0
1714399.0,0.447,0.442,-0.021,44.64,-92.74,0
1714404.0,-0.441,-0.501,-0.323,-42.51,126.24,0
1714409.0,0.577,0.318,-0.043,28.8,-94.26,0
1714414.0,-0.345,-0.305,0.091,-40.48,75.2,0
1714419.0,0.443,0.49,0.101,47.2,-77.18,0
1714424.0,-0.508,-0.491,-0.096,-43.55,100.66,0
1714429.0,0.244,0.409,0.211,51.74,-49.16,0
1714434.0,-0.577,-0.405,-0.177,-33.86,107.05,0
1714439.0,0.378,0.605,-0.005,58.01,-90.7,0
1714444.0,-0.405,-0.441,0.038,-47.32,84.57,0
1714449.0,0.459,0.368,0.338,32.85,-53.68,0
1714454.0,-0.328,0.253,-0.266,30.96,128.98,0
1714459.0,0.376,0.486,-0.143,50.37,-110.91,0
1714464.0,-0.424,-0.494,-0.158,-47.5,110.42,0
1714469.0,0.333,0.426,0.173,48.65,-62.58,0
1714474.0,-0.441,-0.369,-0.234,-36.48,118.01,0
1714479.0,0.356,0.349,-0.043,44.19,-96.87,0
1714484.0,-0.426,-0.429,-0.175,-42.96,112.27,0
1714489.0,0.414,0.373,0.094,41.31,-77.27,0
1714494.0,-0.39,0.17,0.07,23.14,79.9,0
1714499.0,0.354,0.567,0.249,52.63,-54.87,0
1714504.0,-0.417,-0.496,-0.12,-48.84,106.0,0
1714509.0,0.225,0.363,0.015,58.21,-86.3,0
1714514.0,-0.345,-0.427,-0.096,-50.0,105.49,0
1714519.0,0.366,0.502,-0.045,53.71,-97.06,0
1714524.0,-0.379,-0.407,-0.024,-47.05,93.6,0
1714529.0,0.433,0.387,-0.053,41.6,-96.91,0
1714534.0,-0.036,0.102,0.041,61.97,41.5,0
1714539.0,0.388,0.457,-0.105,48.68,-105.18,0
1714544.0,-0.393,-0.434,0.163,-45.57,67.47,0
1714549.0,0.141,0.33,0.187,54.64,-37.03,0
1714554.0,-0.486,-0.312,0.173,-31.14,70.46,0
1714559.0,0.134,-0.238,0.156,-49.15,-40.67,0
1714564.0,-0.606,0.131,0.199,11.62,71.83,0
1714569.0,0.266,-0.125,-0.017,-25.16,-93.58,0
1714574.0,-0.07,0.229,0.024,72.18,70.92,0
1714579.0,0.524,-0.12,0.125,-12.58,-76.62,0
1714584.0,-0.256,0.031,0.091,6.43,70.43,0
1714589.0,0.356,-0.127,-0.254,-16.23,-125.43,0
1714594.0,-0.158,0.031,-0.076,9.89,115.79,0
1714599.0,0.321,-0.185,0.125,-28.25,-68.75,0
1714604.0,-0.34,0.153,0.18,21.65,62.15,0
1714609.0,0.074,-0.132,0.067,-52.9,-47.75,0
1714614.0,-0.244,0.253,0.189,39.33,52.25,0
1714619.0,0.091,-0.182,0.079,-56.57,-48.9,0
1714624.0,-0.122,0.016,0.084,6.26,55.54,0
1714629.0,0.383,-0.091,0.015,-13.43,-87.83,0
1714634.0,-0.053,0.059,-0.091,29.46,149.77,0
1714639.0,0.378,-0.032,-0.084,-4.67,-102.47,0
1714644.0,-0.058,-0.036,0.05,-25.4,48.84,0
1714649.0,0.258,-0.0,0.278,-0.07,-42.91,0
1714654.0,-0.209,0.007,0.031,1.82,81.47,0
1714659.0,0.04,-0.158,-0.165,-43.01,-166.22,0
1714664.0,-0.338,-0.036,0.127,-5.76,69.39,0
1714669.0,0.313,-0.029,0.316,-3.75,-44.75,0
1714674.0,-0.158,0.126,0.127,31.92,51.24,0
1714679.0,0.366,-0.065,-0.093,-9.78,-104.29,0
1714684.0,-0.086,-0.005,0.043,-3.12,63.41,0
1714689.0,0.467,-0.02,0.086,-2.37,-79.52,0
1714694.0,-0.115,-0.151,-0.005,-52.7,92.3,0
1714699.0,0.299,-0.032,-0.12,-5.6,-111.79,0
1714704.0,-0.24,-0.036,0.036,-8.54,81.44,0
1714709.0,0.266,0.091,0.196,15.32,-53.5,0
1714714.0,-0.367,-0.034,0.082,-5.17,77.46,0
1714719.0,0.196,-0.022,0.036,-6.3,-79.58,0
1714724.0,0.129,0.004,0.213,0.99,-31.18,0
1714729.0,0.067,0.062,0.355,9.72,-10.67,0
1714734.0,-0.137,-0.115,-0.108,-33.56,128.2,0
1714739.0,0.254,-0.003,-0.347,-0.38,-143.85,0
1714744.0,-0.242,-0.027,-0.048,-6.2,101.15,0
1714749.0,0.505,0.1,0.29,9.75,-60.14,0
1714754.0,-0.266,-0.13,0.086,-24.89,72.01,0
1714759.0,0.227,-0.027,-0.139,-5.75,-121.4,0
1714764.0,-0.304,-0.017,0.177,-2.8,59.77,0
1714769.0,0.277,0.119,0.333,15.38,-39.81,0
1714774.0,-0.448,-0.17,0.094,-20.43,78.21,0
1714779.0,0.285,0.031,-0.043,6.08,-98.58,0
1714784.0,-0.209,-0.285,-0.105,-50.7,116.77,0
1714789.0,0.548,0.134,-0.009,13.7,-90.98,0
1714794.0,-0.137,-0.056,-0.055,-20.66,111.88,0
1714799.0,0.653,0.155,0.259,12.45,-68.4,0
1714804.0,-0.223,-0.187,0.173,-33.59,52.26,0
1714809.0,0.22,-0.015,-0.155,-3.15,-125.24,0
1714814.0,-0.446,-0.173,-0.132,-20.41,106.45,0
1714819.0,0.306,0.337,0.4,33.79,-37.44,0
1714824.0,-0.417,-0.261,0.338,-25.98,50.98,0
1714829.0,0.323,0.148,0.12,23.24,-69.64,0
1714834.0,-0.24,-0.24,-0.117,-41.96,116.05,0
1714839.0,0.519,0.296,0.043,29.63,-85.24,0
1714844.0,-0.326,-0.384,-0.045,-49.38,97.92,0
1714849.0,0.424,0.268,-0.019,32.27,-92.57,0
1714854.0,-0.369,-0.173,-0.067,-24.75,100.27,0
1714859.0,0.431,0.289,0.101,33.18,-76.84,0
1714864.0,-0.551,-0.324,-0.072,-30.23,97.41,0
1714869.0,0.352,0.287,-0.029,39.11,-94.64,0
1714874.0,-0.434,-0.23,0.137,-26.87,72.51,0
1714879.0,0.44,0.294,0.254,30.05,-60.03,0
1714884.0,-0.395,-0.422,-0.103,-45.93,104.58,0
1714889.0,-0.209,0.256,0.101,47.83,64.22,0
1714894.0,-0.094,-0.427,0.161,-66.46,30.24,0
1714899.0,0.567,0.39,0.242,32.3,-66.9,0
1714904.0,-0.525,-0.441,-0.021,-40.03,92.33,0
1714909.0,0.469,0.356,-0.038,37.13,-94.65,0
1714914.0,-0.52,-0.398,-0.189,-35.73,109.98,0
1714919.0,0.388,0.375,0.132,42.52,-71.22,0
1714924.0,-0.465,-0.348,0.125,-35.85,74.98,0
1714929.0,0.464,0.332,0.216,32.99,-65.09,0
1714934.0,-0.302,-0.431,0.106,-53.45,70.74,0
1714939.0,0.467,0.383,0.022,39.32,-87.34,0
1714944.0,-0.453,-0.515,-0.213,-45.84,115.19,0
1714949.0,0.582,0.442,0.137,36.53,-76.78,0
1714954.0,-0.29,-0.391,0.046,-53.09,81.05,0
1714959.0,0.33,0.407,0.041,50.71,-82.94,0
1714964.0,-0.321,-0.549,-0.153,-57.05,115.49,0
1714969.0,0.438,0.45,0.24,42.01,-61.32,0
1714974.0,-0.458,-0.384,0.146,-38.61,72.28,0
1714979.0,0.38,0.567,0.07,55.7,-79.63,0
1714984.0,-0.426,-0.525,-0.041,-50.78,95.43,0
1714989.0,0.464,0.39,0.18,38.06,-68.84,0
1714994.0,-0.455,-0.443,-0.244,-40.65,118.2,0
1714999.0,0.426,0.498,0.043,49.29,-84.2,0
1715004.0,-0.364,-0.477,0.113,-51.37,72.81,0
1715009.0,0.388,0.507,0.153,50.58,-68.41,0
1715014.0,-0.462,-0.465,0.038,-45.06,85.24,0
1715019.0,0.481,0.464,-0.064,43.71,-97.64,0
1715024.0,-0.4,-0.46,-0.091,-48.28,102.79,0
1715029.0,0.486,0.335,0.134,33.59,-74.55,0
1715034.0,-0.362,-0.381,0.065,-46.04,79.84,0
1715039.0,0.438,0.588,0.283,48.47,-57.16,0
1715044.0,-0.407,-0.51,-0.084,-50.84,101.61,0
1715049.0,0.297,0.423,-0.014,54.95,-92.74,0
1715054.0,-0.486,-0.508,0.108,-45.57,77.49,0
1715059.0,0.416,0.636,0.206,53.87,-63.67,0
1715064.0,-0.486,-0.556,-0.33,-43.4,124.18,0
1715069.0,0.383,0.428,0.113,47.01,-73.6,0
1715074.0,-0.347,-0.431,0.29,-43.64,50.16,0
1715079.0,0.548,0.495,0.084,41.77,-81.29,0
1715084.0,-0.436,-0.52,-0.558,-36.3,141.98,0
1715089.0,0.436,0.498,0.089,48.22,-78.48,0
1715094.0,0.084,0.217,0.287,35.99,-16.21,0
1715099.0,0.345,0.524,-0.201,52.72,-120.25,0
1715104.0,-0.505,-0.594,0.127,-48.75,75.89,0
1715109.0,0.385,0.493,0.331,44.15,-49.37,0
1715114.0,-0.508,-0.453,0.05,-41.59,84.33,0
1715119.0,0.311,0.488,-0.436,42.35,-144.47,0
1715124.0,-0.501,-0.496,0.17,-43.17,71.23,0
1715129.0,0.428,0.423,0.18,42.34,-67.24,0
1715134.0,-0.113,0.241,-0.079,60.31,124.96,0
1715139.0,0.428,0.483,-0.371,40.45,-130.89,0
1715144.0,-0.244,0.284,0.122,46.14,63.43,0
1715149.0,0.5,-0.269,-0.002,-28.24,-90.26,0
1715154.0,-0.321,0.138,-0.196,20.19,121.42,0
1715159.0,0.503,-0.362,-0.105,-35.19,-101.82,0
1715164.0,-0.407,0.311,0.283,32.08,55.24,0
1715169.0,0.297,-0.352,-0.153,-46.55,-117.29,0
1715174.0,-0.221,0.284,0.024,52.05,83.76,0
1715179.0,0.258,-0.161,0.216,-25.55,-50.15,0
1715184.0,-0.45,0.258,0.173,28.15,69.04,0
1715189.0,0.091,-0.24,-0.203,-47.13,-155.95,0
1715194.0,-0.11,0.162,-0.021,55.29,100.97,0
1715199.0,0.208,-0.158,0.065,-36.03,-72.7,0
1715204.0,0.033,0.17,-0.057,68.65,-149.85,0
1715209.0,0.225,-0.273,-0.191,-42.8,-130.41,0
1715214.0,-0.046,0.162,0.129,49.78,19.46,0
1715219.0,0.215,-0.204,0.129,-39.08,-58.98,0
1715224.0,-0.134,0.232,0.137,50.42,44.51,0
1715229.0,0.139,-0.204,0.232,-37.01,-30.82,0
1715234.0,-0.077,0.203,0.309,32.52,13.97,0
1715239.0,0.036,-0.29,-0.112,-67.89,-162.39,0
1715244.0,-0.17,0.11,-0.024,32.54,97.95,0
1715249.0,0.254,-0.12,0.084,-24.23,-71.68,0
1715254.0,-0.055,0.098,0.101,40.37,28.77,0
1715259.0,0.304,-0.192,-0.155,-29.36,-117.1,0
1715264.0,-0.046,0.047,0.043,36.98,46.59,0
1715269.0,0.39,0.038,0.187,5.0,-64.39,0
1715274.0,-0.091,0.172,0.259,32.07,19.42,0
1715279.0,0.105,-0.158,0.01,-56.34,-84.71,0
1715284.0,-0.144,0.002,0.129,0.57,48.02,0
1715289.0,0.148,-0.137,0.12,-35.7,-51.03,0
1715294.0,-0.185,0.081,0.055,22.78,73.34,0
1715299.0,0.289,-0.087,0.034,-16.56,-83.36,0
1715304.0,-0.07,0.091,0.058,45.03,50.41,0
1715309.0,0.426,-0.068,0.07,-8.89,-80.72,0
1715314.0,-0.027,0.069,0.187,20.06,8.09,0
1715319.0,0.316,-0.084,0.091,-14.38,-73.9,0
1715324.0,-0.113,0.071,0.036,31.07,72.26,0
1715329.0,0.146,-0.096,-0.021,-33.15,-98.35,0
1715334.0,-0.278,0.016,0.163,2.89,59.62,0
1715339.0,0.191,0.05,0.106,12.84,-61.12,0
1715344.0,-0.309,0.004,0.015,0.8,87.31,0
1715349.0,0.304,-0.106,0.031,-19.11,-84.12,0
1715354.0,-0.199,-0.015,0.043,-4.17,77.73,0
1715359.0,0.313,-0.084,0.022,-15.02,-86.04,0
1715364.0,-0.158,-0.01,0.038,-3.53,76.34,0
1715369.0,0.268,0.153,0.015,29.65,-86.9,0
1715374.0,-0.199,-0.008,0.015,-2.2,85.82,0
1715379.0,0.318,-0.068,0.12,-11.23,-69.36,0
1715384.0,-0.185,-0.041,0.196,-8.68,43.21,0
1715389.0,0.368,-0.041,0.043,-6.33,-83.3,0
1715394.0,-0.132,0.071,-0.048,26.96,109.89,0
1715399.0,0.309,0.009,0.125,1.57,-68.0,0
1715404.0,-0.151,-0.12,0.094,-34.07,58.24,0
1715409.0,0.354,0.043,-0.038,6.82,-96.15,0
1715414.0,-0.177,-0.106,-0.033,-30.38,100.65,0
1715419.0,0.258,0.098,0.07,20.06,-74.92,0
1715424.0,-0.232,-0.175,0.077,-35.6,71.72,0
1715429.0,0.313,0.162,0.115,25.93,-69.84,0
1715434.0,-0.34,-0.022,0.177,-3.29,62.47,0
1715439.0,0.165,-0.015,0.017,-5.12,-84.14,0
1715444.0,-0.295,-0.103,-0.014,-19.32,92.76,0
1715449.0,0.445,0.105,0.22,11.92,-63.65,0
1715454.0,-0.228,-0.091,0.038,-21.61,80.41,0
1715459.0,0.373,0.088,-0.189,11.89,-116.85,0
1715464.0,-0.28,-0.218,-0.041,-37.63,98.23,0
1715469.0,0.447,0.129,0.266,13.9,-59.28,0
1715474.0,-0.316,-0.101,-0.117,-16.68,110.33,0
1715479.0,0.383,0.04,-0.127,5.7,-108.32,0
1715484.0,-0.153,-0.154,0.24,-28.38,32.64,0
1715489.0,0.517,0.181,0.393,15.62,-52.77,0
1715494.0,-0.362,-0.228,-0.12,-30.89,108.29,0
1715499.0,0.34,0.21,-0.033,31.62,-95.61,0
1715504.0,-0.383,-0.3,0.29,-31.95,52.9,0
1715509.0,0.44,0.335,0.343,30.96,-52.12,0
1715514.0,-0.371,-0.328,-0.246,-36.39,123.57,0
1715519.0,0.225,0.208,-0.076,41.19,-108.78,0
1715524.0,-0.316,-0.202,0.158,-29.69,63.43,0
1715529.0,0.548,0.292,0.168,26.97,-72.98,0
1715534.0,-0.254,-0.278,-0.081,-46.21,107.74,0
1715539.0,0.519,0.318,0.003,31.48,-89.72,0
1715544.0,-0.213,-0.369,-0.024,-59.83,96.36,0
1715549.0,0.452,0.258,0.062,29.48,-82.14,0
1715554.0,-0.426,-0.297,-0.024,-34.85,93.19,0
1715559.0,0.337,0.316,0.23,37.7,-55.71,0
1715564.0,-0.39,-0.348,0.048,-41.46,82.99,0
1715569.0,0.433,0.308,0.091,34.87,-78.12,0
1715574.0,-0.4,-0.386,0.101,-43.09,75.87,0
1715579.0,0.515,0.519,0.141,44.21,-74.63,0
1715584.0,-0.493,-0.554,-0.153,-46.97,107.23,0
1715589.0,0.385,0.392,0.084,44.85,-77.71,0
1715594.0,-0.35,-0.388,0.149,-45.62,66.98,0
1715599.0,0.476,0.409,0.223,37.88,-64.92,0
1715604.0,-0.323,-0.362,-0.069,-47.58,102.09,0
1715609.0,0.491,0.313,-0.021,32.53,-92.5,0
1715614.0,-0.297,-0.35,0.11,-47.84,69.63,0
1715619.0,0.467,0.459,0.05,44.37,-83.83,0
1715624.0,-0.388,-0.436,0.0,-48.34,89.98,0
1715629.0,0.325,0.256,0.029,38.05,-84.93,0
1715634.0,-0.448,-0.424,-0.067,-43.13,98.49,0
1715639.0,0.385,0.466,0.237,45.87,-58.38,0
1715644.0,-0.515,-0.549,-0.033,-46.76,93.71,0
1715649.0,0.416,0.514,0.122,49.84,-73.63,0
1715654.0,-0.333,0.409,0.089,49.88,75.08,0
1715659.0,0.426,0.375,0.05,41.19,-83.25,0
1715664.0,-0.288,-0.448,-0.143,-54.36,116.52,0
1715669.0,0.546,0.342,0.156,31.07,-74.07,0
1715674.0,-0.371,-0.283,0.065,-36.9,80.1,0
1715679.0,0.524,0.49,0.05,42.96,-84.5,0
1715684.0,-0.46,-0.532,-0.108,-48.4,103.17,0
1715689.0,0.419,0.385,0.328,35.89,-51.91,0
1715694.0,0.062,0.234,-0.005,75.13,-94.27,0
1715699.0,0.313,0.651,-0.031,64.18,-95.64,0
1715704.0,-0.47,-0.508,0.331,-41.5,54.85,0
1715709.0,0.39,0.529,-0.175,51.05,-114.12,0
1715714.0,-0.292,-0.503,-0.134,-57.42,114.61,0
1715719.0,0.464,0.519,-0.12,47.28,-104.44,0
1715724.0,-0.338,-0.479,0.153,-52.26,65.58,0
1715729.0,0.486,0.301,-0.249,28.89,-117.12,0
1715734.0,0.009,0.246,0.082,71.55,-6.53,0
1715739.0,0.543,0.634,0.06,49.24,-83.7,0
1715744.0,-0.508,0.311,-0.026,31.43,92.95,0
1715749.0,0.316,-0.348,-0.067,-47.12,-101.96,0
1715754.0,-0.537,0.249,0.259,22.65,64.26,0
1715759.0,0.273,-0.386,-0.151,-51.09,-118.92,0
1715764.0,-0.496,0.27,-0.045,28.48,95.22,0
1715769.0,0.395,-0.314,0.062,-38.16,-81.02,0
1715774.0,0.04,0.378,0.295,51.79,-7.82,0
1715779.0,0.594,-0.233,-0.488,-16.85,-129.44,0
1715784.0,-0.436,0.095,-0.335,9.83,127.54,0
1715789.0,0.127,-0.249,0.307,-36.94,-22.44,0
1715794.0,0.009,0.155,0.556,15.6,-0.96,0
1715799.0,-0.072,-0.163,-0.189,-38.91,159.13,0
1715804.0,-0.182,0.208,-0.163,40.39,131.75,0
1715809.0,0.04,-0.24,0.079,-69.66,-27.07,0
1715814.0,-0.132,0.232,0.244,39.85,28.36,0
1715819.0,0.079,-0.178,-0.153,-45.9,-152.77,0
1715824.0,0.024,0.275,-0.005,84.98,-101.05,0
1715829.0,0.218,-0.345,-0.124,-54.02,-119.74,0
1715834.0,-0.027,0.126,0.031,72.01,40.35,0
1715839.0,0.129,-0.204,-0.017,-57.47,-97.33,0
1715844.0,-0.01,0.344,0.206,59.07,2.73,0
1715849.0,0.009,-0.364,-0.115,-72.46,-175.35,0
1715854.0,-0.18,0.143,-0.05,37.49,105.58,0
1715859.0,0.04,-0.185,0.108,-58.06,-20.56,0
1715864.0,-0.11,0.284,0.189,52.39,30.24,0
1715869.0,0.093,-0.206,-0.242,-38.55,-158.92,0
1715874.0,-0.12,0.079,-0.038,31.96,107.64,0
1715879.0,0.256,-0.314,0.074,-49.69,-73.8,0
1715884.0,-0.003,0.289,0.125,66.68,1.21,0
1715889.0,0.242,-0.249,-0.11,-43.23,-114.48,0
1715894.0,-0.125,0.098,0.129,28.52,43.94,0
1715899.0,0.158,-0.257,0.125,-51.92,-51.69,0
1715904.0,-0.079,0.126,0.07,50.16,48.71,0
1715909.0,0.179,0.014,0.089,3.97,-63.67,0
1715914.0,-0.003,0.186,0.395,25.24,0.38,0
1715919.0,0.191,-0.182,0.115,-39.26,-58.97,0
1715924.0,-0.11,-0.012,-0.064,-5.56,120.29,0
1715929.0,0.067,-0.216,-0.179,-48.44,-159.58,0
1715934.0,-0.158,0.265,0.036,58.54,77.16,0
1715939.0,0.23,-0.226,-0.086,-42.61,-110.54,0
1715944.0,-0.101,0.229,0.103,57.84,44.35,0
1715949.0,0.249,-0.149,0.117,-28.43,-64.72,0
1715954.0,-0.125,0.167,-0.031,52.44,103.94,0
1715959.0,0.227,-0.257,-0.227,-38.61,-135.01,0
1715964.0,-0.058,0.043,0.173,13.18,18.49,0
1715969.0,0.122,-0.108,0.211,-23.96,-30.03,0
1715974.0,-0.278,0.069,0.06,13.63,77.82,0
1715979.0,0.177,-0.077,0.074,-21.88,-67.2,0
1715984.0,-0.17,0.05,0.247,9.43,34.6,0
1715989.0,0.179,-0.077,-0.067,-21.94,-110.45,0
1715994.0,-0.046,0.04,-0.153,14.13,163.37,0
1715999.0,0.373,-0.02,0.115,-2.88,-72.86,0
1716004.0,-0.163,0.088,0.053,27.21,72.05,0
1716009.0,0.39,-0.135,-0.122,-18.23,-107.36,0
1716014.0,-0.134,0.023,0.149,6.68,42.11,0
1716019.0,0.22,-0.084,0.079,-19.82,-70.21,0
1716024.0,-0.225,-0.087,-0.036,-20.8,99.02,0
1716029.0,0.158,-0.084,0.074,-25.79,-64.76,0
1716034.0,-0.256,0.086,0.256,13.3,45.01,0
1716039.0,0.143,-0.005,0.031,-2.06,-77.69,0
1716044.0,-0.359,-0.058,-0.088,-8.9,103.82,0
1716049.0,0.28,-0.01,0.151,-1.81,-61.65,0
1716054.0,-0.232,-0.032,0.043,-7.61,79.46,0
1716059.0,0.433,-0.003,-0.208,-0.34,-115.67,0
1716064.0,-0.149,-0.187,-0.033,-50.86,102.65,0
1716069.0,0.385,0.033,0.266,4.04,-55.38,0
1716074.0,-0.072,-0.01,-0.074,-5.56,135.78,0
1716079.0,0.213,0.047,-0.258,8.06,-140.52,0
1716084.0,-0.335,-0.029,0.091,-4.8,74.8,0
1716089.0,0.321,0.045,0.201,6.78,-57.88,0
1716094.0,-0.381,-0.154,0.091,-21.43,76.54,0
1716099.0,0.304,-0.012,0.007,-2.35,-88.62,0
1716104.0,-0.407,-0.137,0.015,-18.58,87.96,0
1716109.0,0.395,0.17,0.232,20.3,-59.52,0
1716114.0,-0.185,-0.089,0.204,-17.95,42.19,0
1716119.0,0.282,0.074,0.156,12.88,-61.11,0
1716124.0,-0.221,-0.123,-0.024,-28.93,96.16,0
1716129.0,0.416,0.114,0.017,15.36,-87.67,0
1716134.0,-0.276,-0.118,0.022,-23.08,85.5,0
1716139.0,0.309,0.045,0.139,7.57,-65.75,0
1716144.0,-0.23,-0.079,0.22,-14.01,46.23,0
1716149.0,0.388,0.126,0.012,18.05,-88.21,0
1716154.0,-0.271,-0.257,-0.196,-37.51,125.92,0
1716159.0,0.347,0.11,0.065,17.26,-79.42,0
1716164.0,-0.268,-0.259,0.225,-36.48,50.0,0
1716169.0,0.519,0.354,0.23,31.92,-66.11,0
1716174.0,-0.357,-0.185,-0.163,-25.23,114.49,0
1716179.0,0.292,0.196,-0.074,33.04,-104.24,0
1716184.0,-0.359,-0.412,0.079,-48.25,77.58,0
1716189.0,0.316,0.222,0.168,31.85,-62.02,0
1716194.0,-0.3,-0.048,0.007,-9.17,88.6,0
1716199.0,0.421,0.177,0.019,22.74,-87.37,0
1716204.0,-0.335,-0.254,-0.002,-37.16,90.38,0
1716209.0,0.424,0.076,0.077,10.03,-79.73,0
1716214.0,-0.326,-0.257,0.077,-37.48,76.74,0
1716219.0,0.459,0.407,0.261,37.57,-60.39,0
1716224.0,-0.309,-0.403,0.062,-51.94,78.58,0
1716229.0,0.266,0.311,-0.088,48.0,-108.42,0
1716234.0,-0.381,-0.288,-0.151,-35.09,111.58,0
1716239.0,0.333,0.397,0.146,47.54,-66.27,0
1716244.0,-0.386,-0.355,0.065,-42.21,80.46,0
1716249.0,0.479,0.229,-0.033,25.55,-93.99,0
1716254.0,-0.283,0.234,0.01,39.61,88.03,0
1716259.0,0.414,0.383,0.177,40.35,-66.81,0
1716264.0,-0.254,-0.336,-0.005,-52.88,91.04,0
1716269.0,0.349,0.289,0.048,39.36,-82.17,0
1716274.0,-0.448,-0.427,-0.067,-43.29,98.49,0
1716279.0,0.335,0.442,0.192,48.9,-60.22,0
1716284.0,-0.642,-0.479,0.129,-36.2,78.6,0
1716289.0,0.316,0.402,0.05,51.48,-80.93,0
1716294.0,0.201,0.294,0.106,52.34,-62.29,0
1716299.0,0.481,0.371,-0.096,37.08,-101.24,0
1716304.0,-0.369,-0.405,-0.002,-47.67,90.35,0
1716309.0,0.558,0.27,-0.196,24.55,-109.38,0
1716314.0,-0.276,-0.443,0.182,-53.32,56.54,0
1716319.0,0.443,0.498,-0.378,40.52,-130.5,0
1716324.0,-0.402,-0.463,0.005,-48.97,89.3,0
1716329.0,0.306,0.469,0.117,55.02,-69.01,0
1716334.0,-0.228,0.33,0.074,54.02,71.91,0
1716339.0,0.349,-0.328,-0.302,-35.45,-130.8,0
1716344.0,-0.477,0.32,0.115,33.15,76.43,0
1716349.0,0.455,-0.355,0.072,-37.63,-81.0,0
1716354.0,-0.302,0.249,0.089,38.3,73.62,0
1716359.0,0.653,-0.307,-0.452,-21.12,-124.7,0
1716364.0,-0.398,0.354,-0.172,39.23,113.42,0
1716369.0,0.486,-0.412,-0.064,-40.07,-97.56,0
1716374.0,0.021,0.337,0.278,50.42,-4.38,0
1716379.0,0.364,-0.398,-0.055,-47.25,-98.59,0
1716384.0,0.028,0.328,0.082,75.22,-19.25,0
1716389.0,-0.161,-0.29,-0.263,-43.26,148.6,0
1716394.0,0.017,0.339,0.036,83.33,-24.61,0
1716399.0,0.057,-0.436,-0.139,-71.02,-157.58,0
1716404.0,0.055,0.27,0.096,67.75,-29.75,0
1716409.0,0.028,-0.154,-0.045,-70.8,-147.85,0
1716414.0,-0.005,0.347,0.065,79.38,4.44,0
1716419.0,0.005,-0.357,-0.148,-67.45,-178.24,0
1716424.0,-0.039,0.16,0.153,45.32,14.11,0
1716429.0,-0.137,-0.247,0.017,-60.86,82.94,0
1716434.0,-0.015,0.445,0.216,64.09,3.87,0
1716439.0,0.048,-0.379,-0.134,-69.43,-160.42,0
1716444.0,-0.027,0.201,-0.012,81.75,113.96,0
1716449.0,0.019,-0.336,-0.148,-66.0,-172.73,0
1716454.0,0.06,0.404,0.096,74.39,-31.86,0
1716459.0,0.107,-0.149,-0.079,-48.16,-126.26,0
1716464.0,-0.082,0.21,-0.031,67.44,110.77,0
1716469.0,0.038,-0.546,-0.294,-61.49,-172.63,0
1716474.0,-0.113,0.227,0.06,60.63,61.98,0
1716479.0,-0.065,-0.197,0.041,-68.71,57.8,0
1716484.0,-0.165,0.308,0.194,50.41,40.44,0
1716489.0,0.026,-0.257,-0.084,-71.15,-162.67,0
1716494.0,-0.086,0.136,0.003,57.55,88.31,0
1716499.0,0.086,-0.173,-0.136,-47.01,-147.77,0
1716504.0,-0.022,0.287,0.065,76.59,18.58,0
1716509.0,0.139,-0.285,-0.153,-54.11,-137.83,0
1716514.0,-0.084,0.246,0.0,71.15,89.89,0
1716519.0,0.194,-0.352,-0.005,-61.2,-91.37,0
1716524.0,-0.108,0.208,0.017,62.26,81.09,0
1716529.0,0.11,-0.211,-0.115,-53.04,-136.24,0
1716534.0,-0.146,0.292,0.225,47.36,33.01,0
1716539.0,0.064,-0.242,0.031,-73.54,-64.09,0
1716544.0,-0.115,0.201,0.07,56.15,58.86,0
1716549.0,0.172,-0.204,0.084,-46.8,-64.0,0
1716554.0,-0.163,0.203,-0.009,51.19,93.31,0
1716559.0,0.163,-0.333,-0.182,-53.8,-138.2,0
1716564.0,-0.039,0.179,0.266,33.68,8.25,0
1716569.0,0.232,-0.065,0.304,-9.66,-37.33,0
1716574.0,-0.082,0.179,0.01,65.34,83.2,0
1716579.0,0.215,-0.321,-0.28,-42.3,-142.45,0
1716584.0,-0.005,0.119,0.249,25.57,1.16,0
1716589.0,0.201,-0.053,0.326,-7.91,-31.66,0
1716594.0,-0.137,0.256,0.113,55.28,50.5,0
1716599.0,0.146,-0.266,-0.076,-58.27,-117.67,0
1716604.0,-0.201,0.004,-0.007,1.23,92.0,0
1716609.0,0.184,-0.202,-0.108,-43.39,-120.3,0
1716614.0,-0.043,0.33,0.22,55.75,11.12,0
1716619.0,0.194,-0.273,0.106,-51.11,-61.42,0
1716624.0,-0.034,0.136,-0.115,48.66,163.61,0
1716629.0,0.249,-0.297,0.019,-50.0,-85.56,0
1716634.0,0.031,0.208,0.371,29.15,-4.76,0
1716639.0,0.208,-0.017,-0.124,-4.07,-120.86,0
1716644.0,-0.307,0.031,-0.333,3.87,137.32,0
1716649.0,0.227,-0.125,0.206,-22.17,-47.79,0
1716654.0,-0.264,0.009,0.431,1.03,31.44,0
1716659.0,0.196,-0.051,-0.132,-12.13,-123.85,0
1716664.0,-0.254,0.112,-0.261,17.11,135.75,0
1716669.0,0.167,-0.123,0.242,-22.62,-34.67,0
1716674.0,-0.091,0.179,0.551,17.78,9.4,0
1716679.0,0.254,-0.178,-0.084,-33.64,-108.26,0
1716684.0,-0.029,-0.003,-0.278,-0.59,174.04,0
1716689.0,0.447,0.014,0.117,1.72,-75.29,0
1716694.0,-0.007,0.004,0.206,1.2,2.06,0
1716699.0,0.361,-0.079,-0.258,-10.15,-125.57,0
1716704.0,-0.3,-0.058,-0.191,-9.26,122.58,0
1716709.0,0.294,0.059,0.424,6.56,-34.76,0
1716714.0,-0.429,-0.027,0.299,-2.94,55.07,0
1716719.0,0.115,-0.053,-0.098,-19.41,-130.52,0
1716724.0,-0.369,-0.06,0.12,-8.84,72.0,0
1716729.0,0.438,0.165,0.388,15.72,-48.46,0
1716734.0,-0.163,-0.036,0.067,-11.66,67.6,0
1716739.0,0.45,-0.034,-0.27,-3.71,-121.01,0
1716744.0,-0.079,-0.077,-0.005,-44.16,93.34,0
1716749.0,0.436,0.1,0.194,11.85,-65.98,0
1716754.0,-0.177,-0.024,-0.108,-6.71,121.23,0
1716759.0,0.297,-0.087,-0.029,-16.22,-95.5,0
1716764.0,-0.302,-0.223,0.218,-30.93,54.16,0
1716769.0,0.28,0.129,0.261,18.6,-46.99,0
1716774.0,-0.402,0.035,-0.014,5.03,92.02,0
1716779.0,0.175,0.055,-0.041,16.94,-103.08,0
1716784.0,-0.264,-0.245,0.144,-39.18,61.38,0
1716789.0,0.419,0.067,0.077,8.89,-79.61,0
1716794.0,-0.187,-0.056,-0.057,-15.86,107.04,0
1716799.0,0.467,0.112,0.086,13.29,-79.52,0
1716804.0,-0.132,-0.247,0.228,-43.2,30.1,0
1716809.0,0.455,0.102,0.122,12.28,-74.95,0
1716814.0,-0.266,-0.221,0.01,-39.67,87.9,0
1716819.0,0.215,0.15,0.079,33.25,-69.81,0
1716824.0,-0.335,-0.101,0.249,-13.59,53.39,0
1716829.0,0.366,0.191,0.232,23.78,-57.59,0
1716834.0,-0.302,-0.163,0.096,-27.27,72.37,0
1716839.0,0.414,0.11,-0.072,14.63,-99.82,0
1716844.0,-0.237,-0.149,-0.019,-32.03,94.58,0
1716849.0,0.436,0.208,0.149,24.3,-71.16,0
1716854.0,-0.213,0.318,0.012,56.1,86.75,0
1716859.0,0.34,0.138,0.089,21.51,-75.36,0
1716864.0,-0.29,-0.228,-0.009,-38.16,91.86,0
1716869.0,0.373,0.251,0.129,32.42,-70.87,0
1716874.0,-0.35,-0.135,0.094,-20.39,75.03,0
1716879.0,0.4,0.203,0.062,26.66,-81.12,0
1716884.0,-0.295,-0.336,-0.06,-48.14,101.45,0
1716889.0,0.512,0.21,0.153,21.47,-73.33,0
1716894.0,0.242,0.16,-0.112,30.98,-114.95,0
1716899.0,0.404,0.203,-0.313,21.64,-127.78,0
1716904.0,-0.328,-0.338,0.225,-40.34,55.55,0
1716909.0,0.345,0.347,-0.024,45.11,-93.95,0
1716914.0,-0.448,-0.345,-0.167,-35.83,110.49,0
1716919.0,0.297,0.316,-0.127,44.37,-113.13,0
1716924.0,-0.395,-0.431,0.331,-39.94,50.1,0
1716929.0,0.368,0.325,-0.225,36.99,-121.4,0
1716934.0,0.21,0.289,-0.139,48.93,-123.39,0
1716939.0,0.51,-0.417,-0.16,-37.97,-107.45,0
1716944.0,-0.206,0.246,0.005,50.04,88.62,0
1716949.0,0.538,-0.391,-0.414,-29.91,-127.56,0
1716954.0,-0.309,0.356,0.022,48.99,85.98,0
1716959.0,0.464,-0.228,0.12,-25.43,-75.52,0
1716964.0,-0.458,0.316,0.046,34.46,84.3,0
1716969.0,0.321,-0.463,-0.251,-48.64,-128.08,0
1716974.0,0.043,0.256,0.218,49.01,-11.12,0
1716979.0,-0.182,-0.147,-0.055,-37.6,106.77,0
1716984.0,0.1,0.237,-0.189,47.87,-152.04,0
1716989.0,-0.175,-0.501,-0.182,-63.26,136.09,0
1716994.0,0.096,0.399,0.419,42.89,-12.84,0
1716999.0,-0.199,-0.314,-0.175,-49.88,131.27,0
1717004.0,0.112,0.409,-0.117,68.36,-136.22,0
1717009.0,-0.132,-0.455,0.034,-73.35,75.68,0
1717014.0,0.019,0.287,0.254,48.4,-4.26,0
1717019.0,-0.06,-0.374,-0.316,-49.31,169.23,0
1717024.0,0.028,0.342,-0.153,65.52,-169.46,0
1717029.0,0.038,-0.288,0.048,-77.98,-38.39,0
1717034.0,0.086,0.249,0.058,67.39,-56.16,0
1717039.0,0.069,-0.271,-0.354,-36.91,-168.95,0
1717044.0,0.076,0.378,0.115,69.92,-33.57,0
1717049.0,-0.06,-0.309,0.053,-75.5,48.68,0
1717054.0,-0.151,0.193,-0.17,40.4,138.34,0
1717059.0,-0.074,-0.455,-0.297,-56.11,165.91,0
1717064.0,-0.041,0.414,0.371,47.92,6.29,0
1717069.0,-0.204,-0.424,-0.002,-64.35,90.63,0
1717074.0,0.117,0.366,0.041,71.28,-70.76,0
1717079.0,-0.091,-0.214,0.173,-47.58,27.86,0
1717084.0,0.11,0.399,0.275,53.4,-21.75,0
1717089.0,-0.046,-0.448,-0.45,-44.74,174.2,0
1717094.0,-0.01,0.124,-0.191,32.91,177.06,0
1717099.0,0.103,-0.118,0.05,-45.83,-63.85,0
1717104.0,-0.007,0.304,0.031,83.95,13.35,0
1717109.0,-0.012,-0.271,-0.316,-40.61,177.79,0
1717114.0,-0.019,0.186,0.153,50.31,7.21,0
1717119.0,-0.003,-0.336,0.18,-61.83,0.84,0
1717124.0,0.057,0.32,0.079,73.04,-35.86,0
1717129.0,-0.086,-0.374,-0.316,-48.79,164.7,0
1717134.0,-0.072,0.294,0.11,65.86,33.16,0
1717139.0,0.026,-0.348,0.022,-84.42,-50.24,0
1717144.0,0.012,0.287,0.168,59.62,-4.0,0
1717149.0,-0.031,-0.288,-0.237,-50.3,172.46,0
1717154.0,-0.067,0.304,-0.055,74.04,129.22,0
1717159.0,0.024,-0.422,-0.086,-78.06,-164.6,0
1717164.0,-0.003,0.328,0.228,55.2,0.66,0
1717169.0,-0.053,-0.364,-0.091,-73.91,149.77,0
1717174.0,0.012,0.239,0.015,85.53,-38.93,0
1717179.0,0.088,-0.166,-0.151,-43.49,-149.62,0
1717184.0,0.007,0.155,0.034,77.5,-11.65,0
1717189.0,0.107,-0.228,0.079,-59.64,-53.63,0
1717194.0,-0.086,0.251,0.268,41.67,17.86,0
1717199.0,0.064,-0.276,-0.041,-74.57,-122.19,0
1717204.0,-0.065,0.263,0.038,73.99,59.34,0
1717209.0,0.119,-0.328,0.089,-65.63,-53.39,0
1717214.0,-0.082,0.172,0.141,46.47,30.0,0
1717219.0,0.098,-0.319,-0.098,-66.52,-135.02,0
1717224.0,-0.019,0.253,0.113,65.71,9.76,0
1717229.0,0.088,-0.211,-0.1,-57.65,-138.65,0
1717234.0,-0.18,0.287,-0.093,54.77,117.4,0
1717239.0,0.187,-0.194,-0.019,-46.04,-95.81,0
1717244.0,0.019,0.134,0.201,33.46,-5.37,0
1717249.0,0.153,-0.221,-0.069,-52.74,-114.36,0
1717254.0,-0.11,0.15,-0.151,38.83,143.78,0
1717259.0,0.177,-0.202,0.065,-46.93,-69.88,0
1717264.0,-0.151,0.064,0.309,10.57,26.05,0
1717269.0,0.014,-0.187,-0.11,-59.37,-172.68,0
1717274.0,-0.144,0.354,0.031,67.41,77.73,0
1717279.0,0.086,-0.223,0.242,-40.99,-19.56,0
1717284.0,-0.007,0.172,0.316,28.52,1.34,0
1717289.0,0.04,-0.324,-0.325,-44.63,-172.91,0
1717294.0,-0.118,0.222,-0.155,48.74,142.9,0
1717299.0,0.333,-0.053,0.185,-7.96,-60.98,0
1717304.0,-0.103,0.105,0.101,36.03,45.69,0
1717309.0,0.285,-0.295,-0.139,-42.97,-115.98,0
1717314.0,-0.146,0.043,0.182,10.34,38.77,0
1717319.0,0.218,-0.044,0.022,-11.27,-84.3,0
1717324.0,-0.165,0.119,-0.127,29.77,127.45,0
1717329.0,0.129,-0.022,0.05,-9.03,-68.65,0
1717334.0,-0.199,0.069,0.374,9.25,28.03,0
1717339.0,0.096,-0.156,0.06,-54.14,-57.86,0
1717344.0,-0.189,0.004,-0.167,0.98,131.48,0
1717349.0,0.28,-0.046,0.125,-8.53,-65.99,0
1717354.0,-0.151,0.1,0.271,17.89,29.16,0
1717359.0,0.368,-0.075,-0.139,-10.74,-110.63,0
1717364.0,-0.015,0.062,-0.258,13.42,176.77,0
1717369.0,0.361,-0.079,0.115,-11.84,-72.33,0
1717374.0,-0.048,0.076,0.261,16.0,10.44,0
1717379.0,0.175,-0.209,-0.132,-43.69,-127.0,0
1717384.0,-0.335,-0.056,0.003,-9.4,89.56,0
1717389.0,0.143,0.064,0.218,13.81,-33.34,0
1717394.0,-0.398,-0.0,0.043,-0.07,83.79,0
1717399.0,0.148,-0.044,-0.041,-15.83,-105.3,0
1717404.0,-0.206,-0.079,0.235,-14.27,41.28,0
1717409.0,0.364,0.028,0.022,4.43,-86.58,0
1717414.0,-0.137,0.045,-0.155,12.27,138.67,0
1717419.0,0.38,-0.056,0.12,-7.93,-72.51,0
1717424.0,-0.039,-0.044,0.256,-9.54,8.55,0
1717429.0,0.292,-0.091,-0.299,-12.34,-135.7,0
1717434.0,-0.283,0.112,-0.143,19.46,116.91,0
1717439.0,0.385,0.031,0.388,3.21,-44.79,0
1717444.0,0.105,-0.429,0.182,-63.89,-29.99,0
1717449.0,-0.055,0.155,-0.184,38.89,163.29,0
1717454.0,-0.673,0.526,0.515,31.84,52.58,0
1717459.0,0.232,0.15,0.321,20.79,-35.86,0
1717464.0,-0.187,-0.132,0.098,-32.03,62.26,0
1717469.0,0.27,-0.075,-0.117,-14.23,-113.43,0
1717474.0,-0.027,-0.034,0.101,-18.08,14.78,0
1717479.0,0.505,0.174,0.34,15.98,-56.03,0
1717484.0,-0.273,-0.202,0.031,-36.25,83.47,0
1717489.0,0.347,0.124,-0.179,17.62,-117.35,0
1717494.0,0.151,0.306,0.125,57.42,-50.38,0
1717499.0,0.258,0.158,-0.143,28.06,-119.05,0
1717504.0,-0.436,-0.278,0.115,-31.67,75.21,0
1717509.0,0.419,0.189,-0.086,23.81,-101.61,0
1717514.0,-0.218,-0.111,-0.019,-26.8,94.98,0
1717519.0,0.424,0.15,-0.378,14.83,-131.76,0
1717524.0,-0.264,-0.185,0.115,-32.73,66.42,0
1717529.0,0.493,-0.352,-0.053,-35.41,-96.08,0
1717534.0,0.155,0.342,0.031,65.13,-78.62,0
1717539.0,0.304,-0.214,-0.33,-25.45,-137.39,0
1717544.0,-0.297,0.229,0.048,37.31,80.81,0
1717549.0,0.282,-0.434,-0.146,-53.78,-117.33,0
1717554.0,-0.304,0.337,0.091,46.7,73.33,0
1717559.0,0.373,-0.249,-0.103,-32.8,-105.4,0
1717564.0,-0.314,0.447,0.153,52.01,63.96,0
1717569.0,0.347,-0.501,-0.388,-43.91,-138.18,0
1717574.0,0.117,0.237,0.017,63.43,-81.78,0
1717579.0,-0.345,-0.209,-0.108,-30.02,107.32,0
1717584.0,0.112,0.239,-0.009,64.75,-94.79,0
1717589.0,-0.228,-0.3,-0.199,-44.78,131.09,0
1717594.0,0.139,0.21,0.115,49.4,-50.3,0
1717599.0,-0.156,-0.226,-0.299,-33.77,152.48,0
1717604.0,0.141,0.318,-0.086,62.55,-121.39,0
1717609.0,-0.23,-0.297,-0.009,-52.25,92.34,0
1717614.0,0.088,0.282,0.247,47.1,-19.7,0
1717619.0,-0.271,-0.252,-0.33,-30.53,140.65,0
1717624.0,0.062,0.239,-0.055,70.88,-131.52,0
1717629.0,-0.228,-0.348,-0.132,-52.9,120.01,0
1717634.0,0.005,0.361,0.084,76.89,-3.1,0
1717639.0,-0.07,-0.214,-0.16,-50.71,156.5,0
1717644.0,0.079,0.349,0.089,71.23,-41.59,0
1717649.0,-0.086,-0.429,-0.175,-65.58,153.67,0
1717654.0,0.017,0.217,-0.038,79.17,-156.58,0
1717659.0,-0.132,-0.23,-0.11,-53.29,129.82,0
1717664.0,0.122,0.361,0.292,48.75,-22.64,0
1717669.0,-0.252,-0.328,-0.251,-42.73,134.95,0
1717674.0,0.057,0.325,-0.122,67.5,-154.86,0
1717679.0,-0.01,-0.285,-0.251,-48.62,177.76,0
1717684.0,0.091,0.258,0.177,52.34,-27.1,0
1717689.0,-0.091,-0.379,-0.12,-68.35,142.66,0
1717694.0,0.052,0.282,0.074,72.12,-35.18,0
1717699.0,-0.039,-0.23,-0.014,-79.89,110.23,0
1717704.0,0.024,0.316,0.115,69.58,-11.64,0
1717709.0,-0.058,-0.293,0.031,-77.36,61.53,0
1717714.0,0.026,0.225,0.22,45.33,-6.75,0
1717719.0,-0.101,-0.261,-0.17,-52.93,149.31,0
1717724.0,0.143,0.265,-0.05,60.2,-109.26,0
1717729.0,-0.101,-0.333,-0.223,-53.76,155.63,0
1717734.0,0.069,0.258,0.038,72.95,-60.93,0
1717739.0,0.115,-0.223,-0.105,-55.11,-132.53,0
1717744.0,-0.031,0.21,0.079,67.95,21.61,0
1717749.0,-0.204,-0.4,-0.1,-60.43,116.23,0
1717754.0,-0.108,0.268,0.05,66.0,64.96,0
1717759.0,-0.223,-0.209,0.062,-42.05,74.36,0
1717764.0,-0.039,0.411,0.347,49.65,6.33,0
1717769.0,-0.161,-0.374,-0.12,-61.83,126.66,0
1717774.0,0.048,0.198,-0.244,38.56,-168.95,0
1717779.0,0.143,-0.324,-0.179,-54.64,-141.36,0
1717784.0,0.165,0.356,0.29,46.89,-29.64,0
1717789.0,0.136,-0.417,-0.12,-66.51,-131.27,0
1717794.0,0.009,0.162,-0.165,44.48,-176.76,0
1717799.0,-0.086,-0.175,-0.218,-36.8,158.35,0
1717804.0,0.007,0.368,0.208,60.47,-1.91,0
1717809.0,-0.06,-0.336,0.0,-79.85,89.85,0
1717814.0,-0.149,0.091,0.05,29.96,71.26,0
1717819.0,-0.005,-0.324,-0.005,-88.79,132.63,0
1717824.0,-0.0,0.366,0.208,60.33,0.07,0
1717829.0,0.057,-0.317,-0.218,-54.58,-165.27,0
1717834.0,-0.012,0.294,-0.11,69.38,173.66,0
1717839.0,0.05,-0.307,-0.033,-78.91,-123.69,0
1717844.0,-0.0,0.301,0.196,56.88,0.07,0
1717849.0,0.048,-0.182,-0.203,-41.14,-166.81,0
1717854.0,-0.06,0.107,-0.134,36.16,155.83,0
1717859.0,0.076,-0.319,0.003,-76.52,-88.08,0
1717864.0,-0.012,0.306,0.314,44.26,2.23,0
1717869.0,0.064,-0.302,-0.062,-73.51,-133.95,0
1717874.0,-0.065,0.277,-0.165,57.4,158.54,0
1717879.0,0.112,-0.331,-0.143,-61.16,-141.96,0
1717884.0,-0.086,0.282,0.316,40.71,15.29,0
1717889.0,0.043,-0.29,0.048,-77.49,-41.73,0
1717894.0,-0.218,0.201,0.0,42.61,89.96,0
1717899.0,0.11,-0.238,-0.091,-59.03,-129.57,0
1717904.0,-0.07,0.256,0.158,55.94,23.77,0
1717909.0,0.194,-0.151,-0.098,-34.88,-116.84,0
1717914.0,-0.031,0.268,-0.064,75.0,154.06,0
1717919.0,0.184,-0.393,0.07,-63.4,-69.29,0
1717924.0,0.014,0.124,0.158,37.99,-5.1,0
1717929.0,0.031,-0.218,-0.34,-32.62,-174.81,0
1717934.0,-0.175,0.227,0.074,50.04,66.97,0
1717939.0,0.189,0.007,0.472,0.76,-21.82,0
1717944.0,-0.292,0.17,0.141,27.56,64.18,0
1717949.0,0.031,-0.252,-0.457,-28.8,-176.13,0
1717954.0,-0.144,0.102,0.072,32.49,63.42,0
1717959.0,0.306,-0.108,0.58,-9.37,-27.85,0
1717964.0,-0.055,0.165,0.074,60.63,36.63,0
1717969.0,0.316,-0.285,-0.56,-23.93,-150.58,0
1717974.0,0.043,0.131,0.268,25.77,-9.07,0
1717979.0,0.306,-0.168,0.366,-19.39,-39.88,0
1717984.0,-0.134,0.11,0.038,38.13,74.02,0
1717989.0,0.151,-0.044,-0.357,-6.42,-157.1,0
1717994.0,-0.379,0.16,0.132,21.75,70.8,0
1717999.0,0.151,-0.204,0.283,-32.49,-28.05,0
1718004.0,-0.271,0.031,0.091,6.12,71.4,0
1718009.0,0.187,-0.056,0.153,-12.95,-50.57,0
1718014.0,-0.089,0.177,0.043,60.79,64.03,0
1718019.0,0.309,-0.068,-0.23,-9.95,-126.66,0
1718024.0,-0.046,-0.003,-0.23,-0.7,168.74,0
1718029.0,0.318,-0.118,0.086,-19.66,-74.82,0
1718034.0,-0.077,0.019,-0.136,6.81,150.58,0
1718039.0,0.239,-0.099,-0.354,-13.0,-145.97,0
1718044.0,-0.153,0.105,0.266,18.86,29.99,0
1718049.0,0.182,-0.084,0.405,-10.75,-24.18,0
1718054.0,0.067,0.462,-0.081,77.16,-140.57,0
1718059.0,0.124,-0.132,0.01,-46.68,-85.52,0
1718064.0,-0.161,0.205,0.364,27.3,23.81,0
1718069.0,0.366,-0.161,-0.014,-23.71,-92.22,0
1718074.0,-0.161,-0.101,-0.285,-17.17,150.57,0
1718079.0,0.304,-0.029,0.055,-5.4,-79.7,0
1718084.0,-0.12,0.134,0.323,21.17,20.35,0
1718089.0,0.33,0.04,-0.333,4.91,-135.21,0
1718094.0,0.172,0.363,-0.007,64.64,-92.34,0
1718099.0,0.258,-0.036,-0.005,-8.02,-91.03,0
1718104.0,-0.314,-0.103,0.187,-15.81,59.23,0
1718109.0,0.27,-0.012,-0.105,-2.46,-111.26,0
1718114.0,-0.256,0.203,0.137,34.94,61.95,0
1718119.0,0.352,-0.302,-0.342,-31.62,-134.22,0
1718124.0,-0.11,-0.147,-0.184,-34.31,149.07,0
1718129.0,0.325,-0.23,-0.218,-30.47,-123.79,0
1718134.0,0.263,0.225,0.18,35.18,-55.67,0
1718139.0,0.23,-0.331,-0.165,-49.48,-125.71,0
1718144.0,-0.276,0.301,0.007,47.53,88.47,0
1718149.0,0.309,-0.252,-0.158,-36.0,-117.09,0
1718154.0,-0.209,0.433,0.11,61.41,62.13,0
1718159.0,0.45,-0.312,-0.196,-32.42,-113.56,0
1718164.0,-0.204,0.21,-0.201,36.3,134.6,0
1718169.0,0.34,-0.381,-0.242,-42.43,-125.42,0
1718174.0,0.16,0.488,0.35,51.75,-24.61,0
1718179.0,-0.35,-0.144,-0.055,-22.15,98.92,0
1718184.0,0.055,0.079,-0.148,26.42,-159.71,0
1718189.0,-0.393,-0.4,-0.309,-38.7,128.16,0
1718194.0,0.198,0.354,0.204,51.21,-44.26,0
1718199.0,-0.153,-0.185,0.0,-50.3,89.94,0
1718204.0,0.282,0.316,0.031,48.01,-83.68,0
1718209.0,-0.101,-0.487,-0.302,-56.84,161.51,0
1718214.0,0.261,0.316,0.015,50.39,-86.81,0
1718219.0,-0.165,-0.178,-0.122,-40.84,126.39,0
1718224.0,0.012,0.344,0.106,72.86,-6.34,0
1718229.0,-0.35,-0.419,-0.16,-47.47,114.61,0
1718234.0,0.007,0.337,0.129,68.97,-3.07,0
1718239.0,-0.328,-0.348,-0.239,-40.56,126.09,0
1718244.0,0.163,0.38,-0.081,64.45,-116.55,0
1718249.0,-0.264,-0.266,-0.278,-34.82,136.48,0
1718254.0,0.194,0.165,0.199,30.68,-44.24,0
1718259.0,-0.151,-0.34,-0.12,-60.5,128.36,0
1718264.0,0.093,0.392,-0.203,60.3,-155.39,0
1718269.0,-0.048,-0.252,-0.366,-34.29,172.51,0
1718274.0,0.143,0.292,0.194,50.39,-36.46,0
1718279.0,-0.091,-0.321,-0.076,-69.67,129.97,0
1718284.0,0.117,0.294,0.153,56.72,-37.35,0
1718289.0,-0.79,-0.271,-0.244,-18.14,107.16,0
1718294.0,0.27,0.435,-0.084,56.97,-107.19,0
1718299.0,-0.225,-0.309,0.043,-53.44,79.13,0
1718304.0,0.153,0.105,0.393,13.97,-21.28,0
1718309.0,-0.141,-0.175,-0.103,-45.06,126.0,0
1718314.0,0.11,0.263,-0.074,63.25,-123.98,0
1718319.0,-0.18,-0.254,-0.359,-32.35,153.39,0
1718324.0,0.155,0.323,0.12,58.7,-52.35,0
1718329.0,-0.204,-0.424,-0.048,-63.75,103.18,0
1718334.0,0.1,0.375,0.163,62.99,-31.62,0
1718339.0,-0.161,-0.407,-0.33,-47.97,154.06,0
1718344.0,0.1,0.313,0.022,71.85,-77.79,0
1718349.0,-0.055,-0.352,-0.041,-78.99,126.24,0
1718354.0,-0.003,0.33,0.017,87.03,8.85,0
1718359.0,-0.161,-0.12,-0.242,-22.5,146.38,0
1718364.0,0.024,0.239,0.108,65.19,-12.39,0
1718369.0,-0.134,-0.369,-0.294,-48.77,155.47,0
1718374.0,-0.043,0.136,-0.184,35.7,166.76,0
1718379.0,-0.041,-0.161,-0.127,-50.38,162.1,0
1718384.0,0.002,0.282,0.208,53.53,-0.59,0
1718389.0,-0.079,-0.324,-0.127,-65.21,147.98,0
1718394.0,-0.012,0.246,0.094,69.03,7.44,0
1718399.0,-0.108,-0.312,-0.115,-63.18,136.74,0
1718404.0,0.031,0.33,0.058,78.79,-28.19,0
1718409.0,-0.156,-0.345,-0.136,-59.05,131.17,0
1718414.0,0.055,0.217,0.158,52.4,-19.12,0
1718419.0,-0.024,-0.187,-0.117,-57.42,168.34,0
1718424.0,0.091,0.308,-0.211,53.37,-156.68,0
1718429.0,-0.017,-0.369,-0.404,-42.36,177.59,0
1718434.0,0.062,0.193,0.086,61.21,-35.68,0
1718439.0,-0.055,-0.276,-0.081,-70.39,145.75,0
1718444.0,-0.065,0.258,0.082,68.01,38.5,0
1718449.0,-0.125,-0.221,-0.187,-44.52,146.24,0
1718454.0,-0.082,0.256,0.141,57.44,30.0,0
1718459.0,-0.041,-0.405,0.096,-75.56,23.11,0
1718464.0,-0.019,0.196,0.218,41.82,5.08,0
1718469.0,-0.077,-0.185,-0.172,-44.42,155.95,0
1718474.0,-0.024,0.225,0.007,83.58,73.11,0
1718479.0,0.129,-0.223,-0.053,-58.02,-112.14,0
1718484.0,0.201,0.129,0.151,27.14,-53.07,0
1718489.0,0.067,-0.226,-0.275,-38.54,-166.36,0
1718494.0,-0.024,0.349,-0.175,63.21,172.12,0
1718499.0,0.064,-0.302,0.019,-77.45,-73.31,0
1718504.0,-0.005,0.27,0.292,42.74,0.99,0
1718509.0,-0.228,-0.482,-0.373,-47.77,148.62,0
1718514.0,-0.084,0.423,-0.175,65.4,154.3,0
1718519.0,-0.017,-0.338,0.01,-86.68,60.2,0
1718524.0,-0.113,0.265,0.144,55.44,38.1,0
1718529.0,0.098,-0.216,0.067,-61.19,-55.54,0
1718534.0,0.026,0.225,0.082,69.13,-17.74,0
1718539.0,0.11,-0.333,-0.223,-53.33,-153.72,0
1718544.0,0.05,0.198,0.211,42.45,-13.35,0
1718549.0,0.165,-0.391,0.125,-62.11,-52.92,0
1718554.0,-0.041,0.234,-0.158,55.14,165.46,0
1718559.0,0.105,-0.089,-0.17,-24.03,-148.25,0
1718564.0,-0.048,0.277,0.319,40.71,8.59,0
1718569.0,0.107,-0.242,0.015,-65.88,-82.3,0
1718574.0,-0.11,0.213,-0.024,62.03,102.16,0
1718579.0,-0.005,-0.295,-0.067,-77.19,175.7,0
1718584.0,-0.048,0.313,0.098,70.73,26.08,0
1718589.0,0.072,-0.364,-0.261,-53.42,-164.65,0
1718594.0,-0.098,0.155,-0.06,53.43,121.24,0
1718599.0,0.201,-0.158,0.117,-34.26,-59.68,0
1718604.0,-0.039,0.409,0.285,54.88,7.7,0
1718609.0,0.208,-0.194,-0.12,-39.01,-119.88,0
1718614.0,-0.173,0.471,0.067,68.54,68.73,0
1718619.0,0.069,-0.336,0.204,-57.35,-18.76,0
1718624.0,0.014,0.134,0.264,26.85,-3.07,0
1718629.0,0.194,-0.19,-0.167,-36.52,-130.84,0
1718634.0,-0.213,0.289,-0.045,52.98,102.0,0
1718639.0,0.289,-0.242,0.048,-39.55,-80.58,0
1718644.0,-0.122,0.167,0.05,51.63,67.6,0
1718649.0,0.371,-0.223,0.029,-30.96,-85.55,0
1718654.0,0.007,0.399,-0.012,88.04,-149.55,0
1718659.0,0.208,-0.185,0.048,-40.88,-77.0,0
1718664.0,-0.051,0.193,0.046,70.61,47.9,0
1718669.0,0.258,-0.166,-0.024,-32.56,-95.26,0
1718674.0,-0.197,0.277,0.127,49.83,57.12,0
1718679.0,0.05,-0.197,0.01,-75.48,-78.99,0
1718684.0,-0.232,0.021,-0.012,5.17,92.91,0
1718689.0,0.141,-0.075,-0.108,-22.84,-127.34,0
1718694.0,0.273,0.452,0.077,57.92,-74.28,0
1718699.0,0.356,-0.113,-0.223,-15.05,-121.97,0
1718704.0,-0.094,0.04,-0.115,15.19,140.8,0
1718709.0,0.364,-0.135,-0.323,-15.46,-131.61,0
1718714.0,-0.07,0.158,0.108,50.81,32.85,0
1718719.0,0.273,-0.166,-0.122,-29.01,-114.09,0
1718724.0,-0.237,-0.046,0.048,-10.75,78.55,0
1718729.0,0.246,-0.434,-0.184,-54.66,-126.78,0
1718734.0,0.261,0.397,0.074,55.67,-74.08,0
1718739.0,0.196,-0.309,-0.055,-56.64,-105.64,0
1718744.0,-0.201,0.32,0.134,52.93,56.31,0
1718749.0,0.306,-0.314,-0.218,-39.9,-125.41,0
1718754.0,-0.206,0.567,-0.079,68.73,110.93,0
1718759.0,-0.125,-0.352,-0.361,-42.67,160.96,0
1718764.0,0.007,0.311,0.0,88.72,-88.68,0
1718769.0,0.292,-0.477,-0.203,-53.28,-124.87,0
1718774.0,0.107,0.474,-0.026,76.85,-103.69,0
1718779.0,-0.328,-0.221,0.026,-33.83,85.38,0
1718784.0,0.361,0.292,0.216,34.73,-59.17,0
1718789.0,-0.345,-0.446,-0.165,-49.37,115.57,0
1718794.0,0.266,0.435,-0.086,57.33,-107.95,0
1718799.0,-0.261,-0.266,-0.359,-30.95,143.96,0
1718804.0,0.234,0.323,-0.158,48.79,-123.96,0
1718809.0,-0.311,-0.47,-0.244,-49.89,128.08,0
1718814.0,0.258,0.44,0.22,52.34,-49.53,0
1718819.0,-0.266,-0.261,0.005,-44.5,88.93,0
1718824.0,0.155,0.282,0.048,60.03,-72.82,0
1718829.0,-0.374,-0.367,-0.153,-42.25,112.27,0
1718834.0,0.163,0.311,0.297,42.54,-28.69,0
1718839.0,-0.35,-0.226,-0.007,-32.81,91.15,0
1718844.0,0.067,0.287,-0.256,47.31,-165.38,0
1718849.0,-0.307,-0.496,-0.438,-42.86,145.0,0
1718854.0,0.299,0.426,0.309,44.71,-44.06,0
1718859.0,-0.127,-0.283,-0.026,-65.36,101.63,0
1718864.0,0.208,0.275,-0.366,33.13,-150.39,0
1718869.0,-0.266,-0.364,-0.551,-30.8,154.21,0
1718874.0,0.333,0.356,0.381,35.17,-41.13,0
1718879.0,-0.271,-0.173,0.101,-30.89,69.6,0
1718884.0,0.11,0.339,-0.237,52.44,-155.11,0
1718889.0,-0.304,-0.415,-0.455,-37.16,146.21,0
1718894.0,0.05,0.179,0.139,50.48,-19.8,0
1718899.0,-0.381,-0.352,-0.024,-42.72,93.57,0
1718904.0,0.052,0.287,0.235,50.01,-12.59,0
1718909.0,-0.115,-0.166,-0.036,-53.95,107.25,0
1718914.0,0.131,0.296,0.007,66.05,-86.8,0
1718919.0,-0.094,-0.281,-0.203,-51.42,155.28,0
1718924.0,0.172,0.275,0.204,45.87,-40.21,0
1718929.0,-0.158,-0.264,-0.28,-39.37,150.52,0
1718934.0,0.084,0.335,-0.187,58.58,-155.88,0
1718939.0,-0.24,-0.336,-0.323,-39.84,143.43,0
1718944.0,0.045,0.27,0.01,80.27,-77.86,0
1718949.0,-0.4,-0.396,-0.163,-42.48,112.12,0
1718954.0,0.076,0.351,0.134,66.28,-29.64,0
1718959.0,-0.254,-0.297,-0.191,-43.07,126.99,0
1718964.0,0.155,0.316,-0.038,63.11,-103.79,0
1718969.0,-0.151,-0.35,-0.266,-48.88,150.37,0
1718974.0,0.136,0.304,0.084,62.21,-58.35,0
1718979.0,-0.18,-0.235,-0.158,-44.5,131.28,0
1718984.0,0.167,0.292,0.158,51.7,-46.61,0
1718989.0,-0.175,-0.379,-0.153,-58.46,131.17,0
1718994.0,0.014,0.277,0.149,61.7,-5.43,0
1718999.0,-0.153,-0.24,-0.129,-50.1,130.08,0
1719004.0,0.187,0.28,0.117,51.75,-57.79,0
1719009.0,-0.067,-0.283,-0.251,-47.42,165.01,0
1719014.0,0.1,0.225,-0.086,59.52,-130.62,0
1719019.0,-0.192,-0.245,-0.263,-36.92,143.92,0
1719024.0,-0.005,0.328,0.086,75.21,3.33,0
1719029.0,-0.309,-0.297,-0.165,-40.32,118.1,0
1719034.0,-0.031,0.282,0.101,69.49,17.3,0
1719039.0,-0.115,-0.218,-0.079,-57.41,124.4,0
1719044.0,0.084,0.174,0.115,50.79,-35.98,0
1719049.0,0.017,-0.415,-0.194,-64.87,-175.13,0
1719054.0,0.019,0.296,-0.031,83.02,-148.58,0
1719059.0,0.153,-0.144,-0.136,-35.12,-131.7,0
1719064.0,0.196,0.409,0.194,55.99,-45.29,0
1719069.0,-0.223,-0.381,-0.321,-44.3,145.2,0
1719074.0,0.055,0.181,0.031,70.82,-60.29,0
1719079.0,-0.168,-0.269,0.026,-57.69,81.03,0
1719084.0,-0.11,0.351,0.244,52.66,24.31,0
1719089.0,-0.256,-0.297,-0.172,-43.91,123.89,0
1719094.0,-0.106,0.272,0.091,62.89,49.2,0
1719099.0,0.05,-0.264,-0.06,-73.55,-140.03,0
1719104.0,0.091,0.232,0.034,67.33,-69.64,0
1719109.0,0.122,-0.247,-0.323,-35.59,-159.33,0
1719114.0,0.064,0.22,-0.067,67.1,-136.08,0
1719119.0,-0.034,-0.293,-0.175,-58.71,169.06,0
1719124.0,0.017,0.256,0.038,80.7,-23.24,0
1719129.0,-0.144,-0.324,-0.062,-64.17,113.34,0
1719134.0,-0.034,0.39,0.058,80.28,30.36,0
1719139.0,-0.053,-0.319,-0.16,-62.11,161.73,0
1719144.0,0.005,0.191,0.223,40.61,-1.17,0
1719149.0,-0.053,-0.317,0.156,-62.53,18.76,0
1719154.0,-0.017,0.268,0.196,53.62,4.94,0
1719159.0,0.033,-0.151,-0.278,-28.43,-173.16,0
1719164.0,-0.015,0.193,-0.239,38.9,176.51,0
1719169.0,0.11,-0.302,-0.251,-47.77,-156.37,0
1719174.0,-0.048,0.246,0.216,48.09,12.58,0
1719179.0,-0.027,-0.187,0.029,-78.16,42.61,0
1719184.0,-0.144,0.287,0.024,63.04,80.49,0
1719189.0,-0.024,-0.357,0.022,-84.8,48.08,0
1719194.0,-0.149,0.205,0.163,42.96,42.38,0
1719199.0,0.084,-0.295,0.024,-73.57,-73.91,0
1719204.0,0.143,0.208,0.122,47.8,-49.55,0
1719209.0,0.198,-0.245,-0.074,-49.11,-110.46,0
1719214.0,0.098,0.15,-0.127,43.19,-142.31,0
1719219.0,0.167,-0.137,-0.072,-36.95,-113.18,0
1719224.0,-0.108,0.347,0.335,44.54,17.85,0
1719229.0,-0.0,-0.563,-0.318,-60.53,179.96,0
1719234.0,-0.177,0.205,-0.129,43.11,126.05,0
1719239.0,0.005,-0.427,0.05,-83.23,-5.15,0
1719244.0,-0.177,0.323,0.22,48.76,38.83,0
1719249.0,0.06,-0.211,-0.191,-46.49,-162.7,0
1719254.0,-0.13,0.246,-0.239,42.13,151.57,0
1719259.0,0.127,-0.345,0.036,-69.12,-74.1,0
1719264.0,-0.041,0.359,0.292,50.55,7.97,0
1719269.0,-0.52,-0.396,-0.491,-28.96,133.35,0
1719274.0,0.005,0.198,-0.069,70.7,-176.24,0
1719279.0,0.074,-0.36,0.115,-69.17,-32.74,0
1719284.0,-0.053,0.201,0.211,42.7,14.09,0
1719289.0,0.141,-0.139,-0.395,-18.38,-160.35,0
1719294.0,-0.106,0.215,0.034,62.73,72.31,0
1719299.0,0.052,-0.35,0.077,-75.13,-34.33,0
1719304.0,-0.051,0.251,0.048,74.47,46.44,0
1719309.0,-0.453,-0.295,-0.385,-26.39,130.4,0
1719314.0,-0.074,0.193,-0.036,66.88,115.65,0
1719319.0,0.172,-0.226,-0.244,-37.06,-144.8,0
1719324.0,-0.022,0.177,0.062,69.49,19.24,0
1719329.0,0.227,-0.34,-0.124,-52.74,-118.69,0
1719334.0,-0.101,0.392,-0.038,74.63,110.73,0
1719339.0,0.268,-0.36,-0.443,-34.79,-148.82,0
1719344.0,-0.046,0.277,-0.117,65.6,158.68,0
1719349.0,-0.424,-0.302,-0.007,-35.47,90.95,0
1719354.0,-0.137,0.459,0.213,61.12,32.66,0
1719359.0,0.155,-0.415,-0.309,-50.19,-153.28,0
1719364.0,-0.173,0.299,-0.031,59.59,100.17,0
1719369.0,0.21,-0.41,-0.053,-62.11,-104.01,0
