time_ms,accel_x,accel_y,accel_z,pitch,roll,sync
1996252.0,0.021,-0.036,0.016,-54.38,-52.53,0
1996257.0,-0.018,0.002,-0.003,7.03,100.92,0
1996262.0,0.03,0.019,-0.032,23.33,-136.91,0
1996267.0,-0.001,0.009,-0.042,12.71,178.58,0
1996272.0,-0.001,-0.017,-0.044,-20.97,178.65,0
1996277.0,0.03,0.021,0.006,34.86,-78.46,0
1996282.0,0.013,-0.043,0.059,-35.65,-12.77,0
1996287.0,0.006,-0.005,0.013,-18.63,-24.76,0
1996292.0,0.004,-0.034,-0.025,-53.13,-171.46,0
1996297.0,-0.003,-0.003,-0.025,-5.78,172.18,0
1996302.0,0.021,0.007,0.009,17.54,-67.4,0
1996307.0,0.001,-0.012,-0.023,-28.2,-176.56,0
1996312.0,-0.02,0.007,0.011,17.01,61.57,0
1996317.0,-0.027,0.002,-0.027,3.3,135.0,0
1996322.0,-0.013,0.017,-0.006,49.35,114.13,0
1996327.0,-0.023,0.002,-0.008,5.31,110.0,0
1996332.0,0.009,-0.007,-0.013,-25.26,-146.72,0
1996337.0,0.035,-0.015,0.035,-16.41,-45.0,0
1996342.0,-0.008,0.009,0.016,27.96,27.6,0
1996347.0,0.028,-0.007,-0.027,-10.68,-134.67,0
1996352.0,0.004,0.017,-0.015,46.32,-166.31,0
1996357.0,0.018,0.014,-0.018,29.22,-134.49,0
1996362.0,-0.011,0.024,-0.03,36.96,160.38,0
1996367.0,0.009,0.017,-0.037,23.64,-166.99,0
1996372.0,-0.013,0.031,-0.042,35.31,162.69,0
1996377.0,-0.049,-0.005,-0.035,-4.72,125.24,0
1996382.0,0.016,0.014,0.009,38.45,-61.49,0
1996387.0,0.018,0.014,-0.011,34.08,-120.37,0
1996392.0,-0.008,-0.0,0.009,-0.77,43.91,0
1996397.0,0.016,0.005,0.013,12.66,-49.71,0
1996402.0,-0.015,0.033,0.018,54.52,40.37,0
1996407.0,0.016,0.014,-0.011,36.83,-124.03,0
1996412.0,0.025,0.024,-0.051,22.57,-153.76,0
1996417.0,0.011,0.043,0.013,68.13,-39.37,0
1996422.0,0.016,-0.012,0.013,-30.48,-49.71,0
1996427.0,-0.011,0.005,0.009,18.77,51.19,0
1996432.0,-0.008,-0.007,-0.025,-15.6,161.79,0
1996437.0,-0.018,0.014,-0.011,34.43,120.81,0
1996442.0,0.03,-0.019,0.011,-31.1,-70.03,0
1996447.0,0.006,-0.017,0.006,-62.81,-45.0,0
1996452.0,-0.011,0.024,0.006,62.72,59.93,0
1996457.0,0.009,0.007,0.009,30.18,-45.0,0
1996462.0,-0.006,0.026,-0.032,38.69,169.73,0
1996467.0,-0.008,-0.031,0.042,-36.13,11.06,0
1996472.0,0.001,0.021,-0.037,30.05,-177.9,0
1996477.0,0.023,-0.003,0.001,-6.35,-86.61,0
1996482.0,-0.013,-0.031,-0.073,-22.91,169.88,0
1996487.0,-0.008,0.029,0.023,49.58,19.74,0
1996492.0,0.006,-0.005,0.009,-25.19,-35.74,0
1996497.0,0.013,-0.005,-0.015,-13.65,-139.13,0
1996502.0,-0.003,0.019,0.006,69.67,29.18,0
1996507.0,0.009,0.009,-0.015,28.13,-151.0,0
1996512.0,-0.008,-0.01,-0.001,-49.6,97.2,0
1996517.0,-0.003,-0.012,0.006,-59.88,29.18,0
1996522.0,-0.006,-0.005,0.011,-21.77,28.05,0
1996527.0,0.016,-0.003,-0.02,-5.7,-142.1,0
1996532.0,0.004,0.017,-0.051,17.88,-175.82,0
1996537.0,0.016,-0.01,-0.035,-14.38,-155.54,0
1996542.0,0.011,0.007,0.021,16.81,-28.06,0
1996547.0,0.016,0.014,0.023,27.08,-34.47,0
1996552.0,-0.001,0.033,0.011,71.78,5.42,0
1996557.0,0.016,-0.007,-0.018,-17.18,-138.54,0
1996562.0,-0.02,-0.007,-0.018,-15.26,131.39,0
1996567.0,0.028,0.031,0.016,44.2,-60.42,0
1996572.0,0.018,0.007,0.028,11.98,-33.19,0
1996577.0,0.03,-0.0,0.037,-0.19,-38.91,0
1996582.0,0.009,0.014,0.013,41.91,-32.65,0
1996587.0,-0.02,0.014,-0.013,30.6,122.79,0
1996592.0,0.009,0.024,-0.02,47.33,-157.08,0
1996597.0,-0.013,0.002,0.021,5.26,32.39,0
1996602.0,-0.027,0.026,-0.001,43.7,92.17,0
1996607.0,-0.025,-0.022,-0.011,-38.65,113.02,0
1996612.0,0.013,-0.007,0.013,-21.28,-45.0,0
1996617.0,-0.008,0.021,-0.02,44.45,157.85,0
1996622.0,-0.025,0.007,-0.032,9.78,142.17,0
1996627.0,0.011,-0.005,-0.032,-8.29,-161.23,0
1996632.0,-0.006,0.005,0.021,12.25,15.86,0
1996637.0,0.006,-0.0,0.021,-0.43,-16.68,0
1996642.0,-0.008,0.024,0.035,33.57,13.26,0
1996647.0,0.006,-0.003,-0.008,-13.97,-143.22,0
1996652.0,-0.013,0.038,-0.025,53.56,152.49,0
1996657.0,0.006,-0.024,-0.006,-70.64,-133.48,0
1996662.0,-0.008,-0.01,0.013,-31.87,31.67,0
1996667.0,-0.02,-0.019,-0.008,-41.54,112.15,0
1996672.0,0.03,0.007,-0.006,12.91,-100.96,0
1996677.0,0.001,0.012,0.016,36.82,-4.93,0
1996682.0,0.016,-0.024,-0.015,-47.6,-134.41,0
1996687.0,0.001,-0.0,-0.02,-0.45,-176.16,0
1996692.0,0.013,-0.003,0.021,-5.96,-33.02,0
1996697.0,0.009,-0.0,-0.003,-0.99,-111.9,0
1996702.0,0.016,0.019,-0.013,42.95,-129.61,0
1996707.0,0.011,-0.012,-0.015,-32.71,-144.63,0
1996712.0,-0.008,0.019,-0.015,47.41,151.91,0
1996717.0,-0.006,0.007,0.03,12.91,10.96,0
1996722.0,0.001,-0.005,0.016,-17.41,-4.93,0
1996727.0,0.016,0.033,0.032,42.75,-25.83,0
1996732.0,-0.011,0.017,-0.03,27.71,160.38,0
1996737.0,-0.018,-0.003,-0.013,-6.61,126.17,0
1996742.0,-0.023,0.021,0.018,36.45,51.27,0
1996747.0,0.004,-0.017,0.004,-72.59,-45.01,0
1996752.0,0.011,0.012,0.028,21.64,-21.55,0
1996757.0,-0.015,-0.034,-0.03,-45.14,152.64,0
1996762.0,-0.008,-0.022,-0.013,-54.67,147.71,0
1996767.0,-0.003,0.002,0.018,6.91,10.73,0
1996772.0,0.009,0.012,0.016,33.43,-28.51,0
1996777.0,-0.015,0.002,0.016,5.8,44.41,0
1996782.0,0.001,0.021,-0.032,33.6,-177.58,0
1996787.0,0.025,0.002,-0.035,2.99,-143.79,0
1996792.0,-0.015,0.007,-0.066,5.94,166.8,0
1996797.0,0.011,0.005,-0.025,9.63,-156.36,0
1996802.0,0.011,-0.022,0.018,-45.73,-31.11,0
1996807.0,-0.039,0.026,-0.027,28.64,124.83,0
1996812.0,-0.025,0.007,-0.006,15.31,103.13,0
1996817.0,0.001,-0.012,0.044,-15.26,-1.75,0
1996822.0,0.009,-0.01,0.013,-31.6,-32.65,0
1996827.0,0.016,-0.01,-0.03,-16.13,-152.16,0
1996832.0,-0.03,-0.0,0.006,-0.3,78.34,0
1996837.0,0.023,-0.022,-0.018,-36.81,-127.85,0
1996842.0,-0.001,-0.0,0.001,-5.34,37.42,0
1996847.0,-0.02,0.017,-0.03,24.77,145.85,0
1996852.0,0.03,0.005,0.016,7.76,-62.41,0
1996857.0,-0.015,0.002,0.025,4.31,31.34,0
1996862.0,0.061,-0.015,-0.006,-13.29,-95.44,0
1996867.0,-0.013,-0.015,-0.006,-45.54,114.13,0
1996872.0,0.013,-0.01,0.011,-29.46,-50.64,0
1996877.0,-0.008,0.009,-0.035,14.85,166.62,0
1996882.0,-0.006,-0.0,-0.001,-1.54,100.11,0
1996887.0,0.016,-0.012,0.042,-15.12,-20.5,0
1996892.0,-0.001,0.014,0.011,52.29,5.42,0
1996897.0,0.035,-0.017,-0.054,-14.8,-147.0,0
1996902.0,-0.032,0.017,-0.044,16.91,143.92,0
1996907.0,-0.001,0.002,0.028,4.61,2.15,0
1996912.0,0.025,0.021,0.035,26.4,-35.96,0
1996917.0,-0.013,0.002,0.006,8.83,64.72,0
1996922.0,-0.006,-0.015,-0.006,-60.43,135.01,0
1996927.0,-0.001,-0.007,-0.013,-29.36,175.44,0
1996932.0,0.011,0.026,-0.051,26.51,-167.97,0
1996937.0,-0.02,0.002,-0.008,5.85,112.15,0
1996942.0,-0.051,-0.017,0.009,-18.02,80.55,0
1996947.0,-0.013,-0.015,0.018,-33.08,35.68,0
1996952.0,0.006,0.012,0.011,43.28,-29.34,0
1996957.0,-0.003,-0.003,0.04,-3.67,4.94,0
1996962.0,-0.027,0.017,-0.008,30.15,106.72,0
1996967.0,-0.011,0.007,-0.008,27.61,127.76,0
1996972.0,0.018,0.009,0.009,25.18,-64.77,0
1996977.0,-0.001,0.007,0.023,17.03,2.59,0
1996982.0,0.009,-0.007,-0.027,-14.36,-162.68,0
1996987.0,-0.02,-0.022,-0.001,-47.03,92.94,0
1996992.0,0.001,-0.026,-0.001,-86.31,-127.43,0
1996997.0,0.025,0.029,0.004,48.17,-81.57,0
1997002.0,0.018,0.005,-0.003,14.09,-100.73,0
1997007.0,0.018,-0.005,0.006,-14.5,-71.26,0
1997012.0,0.03,-0.003,0.03,-3.43,-45.0,0
1997017.0,-0.02,-0.026,-0.003,-52.3,99.65,0
1997022.0,0.011,0.033,0.025,50.44,-23.37,0
1997027.0,-0.023,0.031,-0.03,39.65,142.81,0
1997032.0,-0.008,-0.003,-0.042,-3.44,168.86,0
1997037.0,-0.023,-0.0,-0.051,-0.16,156.25,0
1997042.0,-0.056,0.017,-0.027,14.89,116.01,0
1997047.0,-0.011,-0.007,-0.025,-15.14,156.98,0
1997052.0,0.025,-0.005,-0.011,-10.22,-112.76,0
1997057.0,0.011,-0.0,0.016,-0.48,-34.82,0
1997062.0,-0.008,0.014,-0.015,39.13,151.91,0
1997067.0,0.013,-0.022,-0.051,-22.27,-165.44,0
1997072.0,-0.003,-0.005,0.013,-19.78,14.44,0
1997077.0,0.004,-0.022,0.023,-43.09,-9.3,0
1997082.0,-0.001,-0.003,-0.03,-4.9,178.0,0
1997087.0,0.018,0.005,0.018,10.24,-45.0,0
1997092.0,0.001,0.005,0.018,14.3,-4.28,0
1997097.0,-0.013,0.017,0.001,51.77,84.05,0
1997102.0,0.011,0.033,0.006,69.4,-60.66,0
1997107.0,0.013,0.009,0.001,35.11,-84.19,0
1997112.0,0.018,-0.005,-0.02,-10.34,-138.1,0
1997117.0,-0.023,-0.0,-0.027,-0.26,140.48,0
1997122.0,0.021,0.005,-0.044,5.43,-155.07,0
1997127.0,0.001,0.009,0.006,56.25,-12.45,0
1997132.0,-0.013,-0.019,0.035,-27.42,20.46,0
1997137.0,0.013,0.009,-0.035,14.27,-158.91,0
1997142.0,-0.032,-0.007,0.011,-12.2,71.23,0
1997147.0,0.004,0.007,-0.061,6.57,-176.48,0
1997152.0,0.001,-0.01,-0.035,-15.72,-177.75,0
1997157.0,0.03,-0.003,-0.044,-2.74,-145.72,0
1997162.0,0.001,0.014,0.035,22.15,-2.23,0
1997167.0,0.009,0.005,-0.032,7.92,-165.13,0
1997172.0,-0.032,-0.026,0.001,-39.46,87.59,0
1997177.0,0.013,-0.0,-0.003,-0.66,-104.44,0
1997182.0,0.016,-0.01,0.021,-20.64,-37.47,0
1997187.0,-0.001,-0.01,0.001,-80.05,37.42,0
1997192.0,-0.013,-0.003,-0.001,-11.07,94.56,0
1997197.0,0.006,0.026,0.016,57.18,-21.35,0
1997202.0,-0.03,0.014,-0.044,14.94,146.0,0
1997207.0,0.016,0.012,0.032,18.12,-25.83,0
1997212.0,0.006,0.009,-0.011,37.52,-149.93,0
1997217.0,-0.015,-0.017,-0.001,-47.62,93.86,0
1997222.0,0.013,-0.0,0.013,-0.49,-45.0,0
1997227.0,-0.018,-0.005,0.009,-14.07,64.37,0
1997232.0,0.032,-0.015,0.004,-23.95,-83.41,0
1997237.0,0.023,-0.005,-0.039,-6.2,-149.79,0
1997242.0,-0.001,0.005,0.023,11.41,2.59,0
1997247.0,0.004,-0.005,-0.006,-35.53,-147.23,0
1997252.0,-0.008,0.026,0.023,47.09,19.74,0
1997257.0,0.011,0.007,0.021,16.81,-28.06,0
1997262.0,-0.003,0.017,-0.015,46.45,167.44,0
1997267.0,0.021,0.009,0.016,20.02,-52.53,0
1997272.0,-0.001,-0.034,0.037,-42.09,1.59,0
1997277.0,0.035,-0.005,0.016,-7.37,-65.73,0
1997282.0,-0.008,-0.012,0.011,-41.57,36.94,0
1997287.0,0.018,0.012,-0.001,33.06,-93.28,0
1997292.0,0.011,-0.019,0.018,-42.39,-31.11,0
1997297.0,0.021,0.007,0.006,18.16,-73.32,0
1997302.0,-0.018,0.017,0.013,36.75,53.17,0
1997307.0,0.004,-0.022,0.006,-71.65,-31.4,0
1997312.0,-0.015,-0.0,0.028,-0.29,29.08,0
1997317.0,-0.032,0.021,-0.049,20.07,146.68,0
1997322.0,0.013,0.029,0.006,62.81,-65.25,0
1997327.0,0.004,-0.012,0.006,-59.31,-31.4,0
1997332.0,-0.011,-0.0,-0.003,-0.82,107.92,0
1997337.0,0.028,0.007,0.03,9.75,-42.63,0
1997342.0,-0.018,0.031,-0.023,47.12,141.76,0
1997347.0,0.013,-0.007,-0.011,-23.31,-128.54,0
1997352.0,0.006,-0.012,0.018,-32.38,-18.74,0
1997357.0,0.013,-0.012,0.021,-26.38,-33.02,0
1997362.0,0.018,0.005,-0.008,13.1,-114.41,0
1997367.0,0.001,0.021,0.016,53.58,-4.93,0
1997372.0,0.016,-0.022,0.018,-42.15,-40.95,0
1997377.0,0.032,0.014,0.013,22.03,-67.69,0
1997382.0,-0.02,-0.005,-0.018,-10.42,131.39,0
1997387.0,0.042,-0.005,0.009,-6.58,-78.52,0
1997392.0,-0.032,-0.017,0.032,-20.31,44.72,0
1997397.0,-0.023,-0.017,-0.006,-35.96,104.47,0
1997402.0,-0.003,-0.007,-0.039,-10.53,175.02,0
1997407.0,0.016,-0.017,0.001,-46.99,-85.07,0
1997412.0,-0.006,0.007,-0.015,23.1,159.28,0
1997417.0,-0.001,0.012,-0.02,30.29,177.06,0
1997422.0,0.006,0.002,-0.011,10.33,-149.93,0
1997427.0,-0.006,-0.003,-0.018,-7.77,161.87,0
1997432.0,-0.02,0.033,-0.006,57.79,106.1,0
1997437.0,0.009,-0.015,-0.03,-25.13,-163.99,0
1997442.0,-0.02,0.019,0.011,39.6,61.57,0
1997447.0,0.028,-0.007,-0.001,-14.84,-92.15,0
1997452.0,0.021,-0.003,-0.03,-4.04,-145.43,0
1997457.0,-0.015,-0.012,0.006,-36.19,68.25,0
1997462.0,0.011,-0.031,-0.006,-68.4,-118.06,0
1997467.0,-0.02,-0.036,-0.018,-53.27,131.39,0
1997472.0,-0.001,0.002,0.018,7.02,3.28,0
1997477.0,-0.018,-0.005,0.006,-14.72,70.95,0
1997482.0,0.018,0.009,-0.058,8.74,-162.79,0
1997487.0,-0.001,0.005,-0.027,9.59,177.83,0
1997492.0,0.025,0.012,0.001,25.0,-86.93,0
1997497.0,0.013,-0.022,-0.032,-31.94,-157.49,0
1997502.0,-0.032,-0.003,0.016,-4.08,63.95,0
1997507.0,0.018,0.014,0.049,15.15,-20.2,0
1997512.0,-0.027,-0.003,-0.023,-4.12,129.53,0
1997517.0,0.009,0.012,-0.037,17.3,-166.99,0
1997522.0,0.009,-0.031,-0.001,-74.63,-96.93,0
1997527.0,0.001,-0.012,0.016,-37.55,-4.93,0
1997532.0,0.004,0.012,0.009,51.71,-23.72,0
1997537.0,-0.013,-0.022,-0.008,-54.67,122.29,0
1997542.0,0.023,0.009,-0.032,13.41,-144.54,0
1997547.0,-0.02,-0.0,0.006,-0.43,73.07,0
1997552.0,0.001,0.005,-0.018,14.54,-175.64,0
1997557.0,-0.008,-0.003,0.006,-13.97,53.22,0
1997562.0,0.011,0.033,-0.008,67.7,-126.94,0
1997567.0,-0.023,0.007,-0.02,13.05,131.8,0
1997572.0,-0.023,0.005,0.013,10.01,59.46,0
1997577.0,-0.044,-0.003,-0.027,-2.82,121.81,0
1997582.0,-0.023,-0.0,0.011,-0.36,64.17,0
1997587.0,0.021,0.019,-0.001,42.77,-92.9,0
1997592.0,-0.008,0.024,0.016,53.28,27.6,0
1997597.0,0.001,0.041,0.035,49.28,-2.23,0
1997602.0,0.004,-0.029,0.037,-37.64,-5.75,0
1997607.0,0.009,0.005,-0.006,24.12,-124.31,0
1997612.0,-0.008,0.005,-0.001,29.19,97.2,0
1997617.0,0.016,-0.003,-0.032,-4.08,-153.95,0
1997622.0,-0.02,0.026,0.025,38.96,38.59,0
1997627.0,-0.006,-0.019,0.028,-34.31,11.88,0
1997632.0,0.03,0.012,-0.063,9.57,-154.57,0
1997637.0,0.025,-0.046,-0.006,-60.37,-102.97,0
1997642.0,-0.025,-0.003,-0.023,-4.34,132.12,0
1997647.0,0.018,-0.024,0.013,-46.98,-53.66,0
1997652.0,-0.025,0.029,-0.011,46.47,113.02,0
1997657.0,-0.008,-0.022,0.013,-54.2,31.67,0
1997662.0,0.001,0.002,0.023,5.56,-3.39,0
1997667.0,-0.006,-0.005,-0.018,-14.8,161.87,0
1997672.0,0.001,0.002,-0.018,7.14,-175.64,0
1997677.0,-0.001,0.012,0.023,27.26,2.59,0
1997682.0,-0.008,0.012,0.025,23.94,18.0,0
1997687.0,0.004,-0.0,-0.001,-2.35,-105.48,0
1997692.0,-0.003,0.012,0.004,66.72,42.46,0
1997697.0,-0.008,0.024,-0.018,50.5,155.21,0
1997702.0,-0.02,-0.003,-0.001,-7.2,92.94,0
1997707.0,-0.003,0.021,-0.051,22.58,176.17,0
1997712.0,-0.006,0.017,0.001,70.18,76.9,0
1997717.0,0.018,0.014,0.021,27.43,-41.45,0
1997722.0,0.009,0.036,0.025,53.25,-18.65,0
1997727.0,-0.003,0.017,-0.037,24.1,174.69,0
1997732.0,0.028,0.019,-0.02,29.0,-126.1,0
1997737.0,-0.039,0.005,0.009,6.56,77.76,0
1997742.0,-0.003,-0.017,-0.061,-15.5,176.77,0
1997747.0,0.023,0.002,0.004,5.5,-80.7,0
1997752.0,-0.027,0.012,0.028,16.87,44.67,0
1997757.0,0.035,0.029,0.013,37.43,-69.09,0
1997762.0,-0.023,-0.007,-0.032,-10.58,144.92,0
1997767.0,-0.011,-0.022,0.025,-38.35,22.76,0
1997772.0,-0.003,0.017,0.028,30.75,7.06,0
1997777.0,0.009,-0.01,-0.027,-18.75,-162.68,0
1997782.0,-0.008,-0.015,-0.023,-31.15,160.0,0
1997787.0,-0.001,0.009,0.011,40.61,5.42,0
1997792.0,-0.001,-0.015,-0.051,-15.8,178.84,0
1997797.0,-0.001,-0.015,-0.037,-21.45,178.39,0
1997802.0,-0.011,0.007,0.006,29.8,59.93,0
1997807.0,0.013,-0.012,-0.008,-37.76,-121.67,0
1997812.0,0.011,-0.007,-0.025,-15.07,-156.36,0
1997817.0,0.021,-0.012,0.006,-29.53,-73.32,0
1997822.0,0.016,0.009,0.025,17.55,-31.86,0
1997827.0,0.006,-0.0,0.018,-0.48,-18.74,0
1997832.0,-0.003,0.024,-0.037,32.65,174.69,0
1997837.0,-0.003,0.009,0.004,61.64,42.46,0
1997842.0,-0.015,0.012,-0.075,8.74,168.43,0
1997847.0,-0.032,0.019,0.001,30.54,87.59,0
1997852.0,-0.001,0.012,-0.042,15.8,178.58,0
1997857.0,0.009,0.012,0.009,44.37,-45.0,0
1997862.0,0.006,-0.022,0.028,-37.43,-12.51,0
1997867.0,-0.003,-0.015,0.004,-70.71,42.46,0
1997872.0,-0.006,-0.034,0.011,-69.8,28.05,0
1997877.0,-0.013,-0.005,0.006,-18.98,64.72,0
1997882.0,-0.015,-0.055,0.009,-72.31,61.0,0
1997887.0,0.004,-0.026,-0.006,-75.34,-147.23,0
1997892.0,-0.011,0.009,0.04,12.92,14.98,0
1997897.0,-0.008,-0.0,-0.02,-0.42,157.85,0
1997902.0,-0.006,-0.012,0.004,-60.27,57.23,0
1997907.0,-0.035,-0.005,0.004,-8.1,83.81,0
1997912.0,0.035,0.029,-0.011,38.09,-106.93,0
1997917.0,-0.003,0.019,-0.001,79.31,106.84,0
1997922.0,0.013,0.005,0.042,5.99,-17.58,0
1997927.0,-0.011,0.005,0.037,6.81,15.9,0
1997932.0,0.016,0.021,-0.037,28.04,-156.95,0
1997937.0,-0.011,0.017,-0.006,53.89,118.77,0
1997942.0,0.023,0.002,0.009,5.22,-69.56,0
1997947.0,-0.018,0.012,0.009,30.9,64.37,0
1997952.0,0.021,-0.012,0.028,-19.39,-36.53,0
1997957.0,0.009,-0.017,0.016,-43.4,-28.51,0
1997962.0,0.018,-0.015,0.021,-27.96,-41.45,0
1997967.0,-0.02,-0.007,-0.006,-19.26,106.1,0
1997972.0,0.001,0.002,0.016,8.06,-4.93,0
1997977.0,0.001,-0.036,0.011,-73.02,-7.07,0
1997982.0,-0.025,-0.017,0.023,-26.53,47.48,0
1997987.0,0.009,-0.024,-0.078,-17.15,-173.72,0
1997992.0,-0.011,-0.019,-0.001,-61.09,95.59,0
1997997.0,0.016,-0.0,0.025,-0.31,-31.86,0
1998002.0,-0.018,-0.0,-0.03,-0.26,149.13,0
1998007.0,0.013,0.017,0.011,43.92,-50.64,0
1998012.0,0.013,0.014,0.016,34.58,-40.29,0
1998017.0,-0.001,-0.005,-0.008,-30.84,172.81,0
1998022.0,0.013,0.002,-0.039,3.08,-161.29,0
1998027.0,-0.013,0.041,0.056,35.0,12.98,0
1998032.0,0.006,0.036,0.052,34.51,-6.79,0
1998037.0,-0.003,0.021,-0.056,20.83,176.5,0
1998042.0,0.006,0.055,-0.032,59.19,-169.18,0
1998047.0,0.03,0.026,-0.001,41.01,-91.98,0
1998052.0,-0.006,0.014,-0.018,37.18,161.87,0
1998057.0,0.028,-0.005,0.016,-8.83,-60.42,0
1998062.0,0.023,0.005,0.042,5.52,-28.57,0
1998067.0,0.016,-0.012,-0.001,-37.59,-93.78,0
1998072.0,0.03,-0.01,0.013,-16.48,-66.11,0
1998077.0,-0.008,-0.01,0.013,-31.87,31.67,0
1998082.0,-0.006,-0.026,0.04,-33.46,8.36,0
1998087.0,0.013,-0.048,-0.011,-70.47,-128.54,0
1998092.0,0.016,-0.005,0.001,-17.41,-85.07,0
1998097.0,0.004,-0.029,0.032,-41.46,-6.59,0
1998102.0,-0.011,-0.005,-0.025,-10.33,156.98,0
1998107.0,-0.006,-0.005,-0.061,-4.62,174.54,0
1998112.0,-0.006,-0.031,0.03,-45.59,10.96,0
1998117.0,-0.013,0.019,0.006,52.86,64.72,0
1998122.0,-0.042,0.014,-0.008,18.47,101.14,0
1998127.0,0.006,0.012,-0.013,39.38,-154.72,0
1998132.0,-0.025,0.026,-0.047,26.37,151.77,0
1998137.0,-0.003,0.036,-0.015,66.18,167.44,0
1998142.0,0.006,0.036,0.011,70.67,-29.34,0
1998147.0,-0.011,0.033,0.037,40.72,15.9,0
1998152.0,0.011,0.026,-0.003,66.36,-107.43,0
1998157.0,-0.003,0.033,0.011,71.04,17.43,0
1998162.0,-0.001,0.009,0.009,47.59,6.93,0
1998167.0,0.04,0.012,0.016,15.47,-68.38,0
1998172.0,-0.02,-0.01,-0.066,-8.06,162.91,0
1998177.0,-0.018,-0.029,0.013,-52.42,53.17,0
1998182.0,-0.015,-0.007,0.011,-21.24,54.63,0
1998187.0,0.006,-0.036,-0.008,-74.12,-143.22,0
1998192.0,0.013,-0.029,-0.015,-54.81,-139.13,0
1998197.0,-0.03,-0.031,-0.006,-45.88,101.08,0
1998202.0,0.006,-0.022,0.037,-29.89,-9.36,0
1998207.0,-0.023,0.002,0.016,4.64,55.16,0
1998212.0,-0.027,-0.015,-0.011,-26.32,111.2,0
1998217.0,0.011,0.033,0.011,65.13,-45.0,0
1998222.0,-0.003,-0.043,0.037,-49.13,5.26,0
1998227.0,-0.013,0.021,-0.049,22.9,165.11,0
1998232.0,0.004,0.021,0.023,42.66,-9.3,0
1998237.0,0.001,0.012,-0.032,20.15,-177.58,0
1998242.0,0.009,0.024,-0.015,53.48,-151.0,0
1998247.0,0.004,0.045,0.016,70.38,-13.42,0
1998252.0,0.03,0.024,0.04,25.53,-37.18,0
1998257.0,-0.006,-0.005,0.009,-25.58,34.31,0
1998262.0,0.028,0.053,-0.011,60.54,-110.97,0
1998267.0,-0.003,0.036,-0.006,79.29,149.5,0
1998272.0,0.013,-0.005,-0.02,-11.56,-146.57,0
1998277.0,-0.006,0.024,0.018,51.34,17.83,0
1998282.0,-0.008,-0.012,-0.02,-29.09,157.85,0
1998287.0,0.016,0.036,0.021,54.14,-37.47,0
1998292.0,0.016,-0.007,0.004,-24.43,-76.58,0
1998297.0,-0.011,-0.015,-0.003,-52.47,107.92,0
1998302.0,-0.013,-0.034,0.004,-68.1,73.92,0
1998307.0,0.001,-0.022,-0.003,-80.35,-158.43,0
1998312.0,-0.018,-0.019,0.006,-45.73,70.95,0
1998317.0,0.001,-0.024,-0.03,-38.97,-177.39,0
1998322.0,-0.02,-0.01,0.011,-22.98,61.57,0
1998327.0,-0.003,-0.01,-0.003,-63.5,135.0,0
1998332.0,-0.03,0.002,-0.023,3.42,127.19,0
1998337.0,0.013,0.026,0.006,60.72,-65.25,0
1998342.0,0.018,0.024,-0.018,43.12,-134.49,0
1998347.0,-0.027,0.007,-0.035,9.05,141.62,0
1998352.0,-0.013,0.024,0.004,60.35,73.92,0
1998357.0,-0.006,0.012,0.018,31.83,17.83,0
1998362.0,-0.006,0.031,0.001,79.07,76.9,0
1998367.0,0.011,0.041,-0.001,74.84,-95.43,0
1998372.0,-0.003,0.017,0.004,72.97,42.46,0
1998377.0,0.013,0.007,0.03,12.05,-23.89,0
1998382.0,-0.001,-0.029,-0.054,-28.27,178.89,0
1998387.0,0.009,0.043,-0.032,52.22,-165.13,0
1998392.0,-0.023,0.012,0.009,26.07,69.29,0
1998397.0,-0.003,-0.019,0.004,-75.25,42.46,0
1998402.0,0.001,-0.0,-0.001,-5.34,-127.43,0
1998407.0,0.013,-0.012,0.04,-16.17,-18.57,0
1998412.0,0.021,0.002,-0.013,5.26,-122.39,0
1998417.0,0.032,-0.017,-0.018,-24.55,-118.72,0
1998422.0,-0.003,-0.024,0.018,-52.58,10.73,0
1998427.0,0.028,-0.029,0.023,-38.8,-50.41,0
1998432.0,-0.037,-0.017,0.018,-22.35,63.88,0
1998437.0,0.013,-0.005,0.009,-17.36,-57.35,0
1998442.0,-0.018,-0.026,-0.037,-32.86,154.28,0
1998447.0,0.011,-0.017,-0.018,-39.01,-148.44,0
1998452.0,0.009,0.002,-0.006,12.2,-124.31,0
1998457.0,0.011,-0.012,0.004,-46.38,-71.07,0
1998462.0,0.001,-0.005,0.03,-9.33,-2.58,0
1998467.0,0.021,0.029,-0.013,49.63,-122.39,0
1998472.0,0.006,0.031,0.018,58.29,-18.74,0
1998477.0,-0.003,0.019,-0.03,32.37,173.42,0
1998482.0,0.018,0.026,0.013,49.33,-53.66,0
1998487.0,-0.003,-0.0,0.023,-0.39,8.52,0
1998492.0,0.004,0.009,0.016,30.23,-13.42,0
1998497.0,-0.018,0.031,0.023,46.87,37.85,0
1998502.0,-0.011,0.007,-0.03,12.53,160.38,0
1998507.0,0.023,-0.0,0.013,-0.34,-59.81,0
1998512.0,0.004,-0.026,0.018,-55.08,-11.7,0
1998517.0,0.025,-0.007,0.03,-10.58,-40.06,0
1998522.0,0.025,0.002,0.006,4.91,-76.35,0
1998527.0,0.009,0.002,0.001,14.49,-80.98,0
1998532.0,0.011,-0.015,-0.027,-26.23,-158.23,0
1998537.0,-0.02,-0.029,-0.023,-43.64,138.2,0
1998542.0,0.001,-0.012,0.047,-14.51,-1.66,0
1998547.0,-0.001,0.007,0.023,17.03,2.59,0
1998552.0,0.013,-0.005,-0.015,-13.65,-139.13,0
1998557.0,-0.02,0.005,-0.087,2.96,166.97,0
1998562.0,0.011,0.021,-0.032,32.19,-161.23,0
1998567.0,-0.018,-0.003,-0.008,-7.42,114.79,0
1998572.0,0.004,-0.012,0.018,-33.25,-11.7,0
1998577.0,0.03,-0.005,0.032,-6.38,-42.81,0
1998582.0,0.018,0.033,-0.03,43.75,-148.68,0
1998587.0,-0.006,0.012,-0.054,12.33,173.81,0
1998592.0,-0.001,0.012,-0.013,42.15,175.44,0
1998597.0,0.018,0.024,0.025,37.39,-35.61,0
1998602.0,0.004,0.014,-0.001,74.68,-105.48,0
1998607.0,0.001,0.002,0.016,8.06,-4.93,0
1998612.0,-0.037,0.005,-0.02,6.27,118.66,0
1998617.0,-0.006,-0.0,-0.035,-0.26,170.43,0
1998622.0,-0.013,-0.003,-0.006,-10.16,114.13,0
1998627.0,0.006,0.026,0.009,68.11,-35.74,0
1998632.0,-0.006,-0.022,0.056,-20.94,5.9,0
1998637.0,-0.001,0.012,0.023,27.26,2.59,0
1998642.0,0.009,-0.0,-0.092,-0.1,-174.7,0
1998647.0,0.011,-0.012,-0.006,-44.4,-118.06,0
1998652.0,-0.03,0.014,0.061,11.79,25.93,0
1998657.0,0.001,-0.005,0.037,-7.56,-2.08,0
1998662.0,-0.011,-0.024,-0.003,-65.16,107.92,0
1998667.0,-0.008,0.005,0.011,18.7,36.94,0
1998672.0,0.03,-0.003,-0.008,-4.68,-105.28,0
1998677.0,-0.03,0.021,-0.011,34.09,109.63,0
1998682.0,0.001,-0.019,-0.018,-47.26,-175.64,0
1998687.0,0.018,-0.017,-0.027,-27.27,-146.5,0
1998692.0,0.001,0.019,-0.023,40.01,-176.56,0
1998697.0,-0.013,0.007,-0.061,6.44,167.94,0
1998702.0,-0.006,0.029,-0.02,53.66,163.91,0
1998707.0,0.011,0.029,0.006,66.3,-60.66,0
1998712.0,-0.003,0.017,0.004,72.97,42.46,0
1998717.0,0.03,0.009,0.011,16.39,-70.03,0
1998722.0,-0.042,0.007,0.054,5.87,37.69,0
1998727.0,0.023,-0.024,0.001,-46.41,-86.61,0
1998732.0,0.004,0.007,-0.018,21.11,-168.1,0
1998737.0,0.016,0.021,0.013,46.06,-49.71,0
1998742.0,0.04,-0.026,-0.02,-30.77,-116.98,0
1998747.0,-0.013,-0.041,-0.027,-53.43,154.58,0
1998752.0,-0.003,-0.005,0.011,-23.35,17.43,0
1998757.0,-0.006,0.017,0.004,67.35,57.23,0
1998762.0,-0.039,0.012,0.023,14.54,59.8,0
1998767.0,0.028,-0.031,0.001,-48.45,-87.2,0
1998772.0,-0.003,-0.007,0.009,-38.59,21.9,0
1998777.0,0.006,0.019,-0.008,61.62,-143.22,0
1998782.0,0.009,-0.015,-0.039,-19.84,-167.75,0
1998787.0,-0.025,-0.0,0.011,-0.34,66.36,0
1998792.0,0.021,0.007,-0.003,18.66,-99.5,0
1998797.0,-0.013,0.002,-0.03,3.93,156.4,0
1998802.0,0.011,0.024,-0.008,60.09,-126.94,0
1998807.0,-0.008,0.031,0.028,46.99,16.53,0
1998812.0,0.011,-0.0,-0.058,-0.15,-169.41,0
1998817.0,-0.003,0.036,0.011,72.23,17.43,0
1998822.0,-0.015,0.017,0.049,17.84,17.37,0
1998827.0,0.016,-0.0,0.001,-0.58,-85.07,0
1998832.0,-0.008,-0.005,-0.02,-12.79,157.85,0
1998837.0,0.023,0.048,-0.008,62.98,-109.74,0
1998842.0,0.004,-0.01,-0.008,-47.14,-155.47,0
1998847.0,-0.008,0.014,-0.03,24.7,164.56,0
1998852.0,0.021,0.002,0.016,4.94,-52.53,0
1998857.0,0.006,-0.022,0.071,-16.99,-4.96,0
1998862.0,0.042,0.002,0.011,2.94,-75.43,0
1998867.0,-0.035,-0.029,-0.003,-39.76,95.67,0
1998872.0,0.025,-0.019,0.04,-22.32,-32.53,0
1998877.0,-0.006,-0.015,0.056,-14.36,5.9,0
1998882.0,-0.013,-0.022,-0.015,-47.11,139.82,0
1998887.0,-0.013,-0.01,0.013,-27.6,44.31,0
1998892.0,-0.011,-0.034,0.011,-65.66,44.15,0
1998897.0,-0.025,-0.029,-0.001,-49.13,92.38,0
1998902.0,-0.008,0.024,-0.001,70.79,97.2,0
1998907.0,-0.006,0.002,0.018,6.7,17.83,0
1998912.0,-0.025,0.029,0.049,27.36,26.9,0
1998917.0,0.009,0.009,-0.037,13.94,-166.99,0
1998922.0,-0.003,-0.017,0.011,-55.89,17.43,0
1998927.0,-0.003,0.009,0.023,22.13,8.52,0
1998932.0,0.001,0.012,-0.015,37.37,-174.97,0
1998937.0,-0.03,-0.012,0.001,-22.15,87.39,0
1998942.0,0.025,-0.007,0.028,-11.08,-42.41,0
1998947.0,0.013,0.021,-0.02,41.48,-146.57,0
1998952.0,0.011,-0.005,-0.018,-13.33,-148.44,0
1998957.0,0.013,0.002,-0.023,4.87,-149.46,0
1998962.0,0.009,-0.024,0.028,-39.75,-17.14,0
1998967.0,-0.025,0.005,-0.001,10.49,92.38,0
1998972.0,0.013,-0.038,0.009,-67.63,-57.35,0
1998977.0,-0.011,-0.024,0.018,-48.94,30.37,0
1998982.0,0.018,-0.01,-0.037,-13.31,-153.88,0
1998987.0,0.016,-0.01,-0.018,-22.29,-138.54,0
1998992.0,-0.027,-0.022,-0.02,-32.54,126.41,0
1998997.0,-0.025,0.014,0.011,27.52,66.36,0
1999002.0,-0.001,0.005,-0.025,10.49,177.62,0
1999007.0,0.011,-0.012,-0.032,-19.65,-161.23,0
1999012.0,-0.015,0.026,-0.003,58.92,102.56,0
1999017.0,-0.013,-0.007,0.009,-25.26,56.72,0
1999022.0,-0.011,-0.005,0.011,-17.99,44.15,0
1999027.0,-0.011,0.014,-0.003,51.86,107.92,0
1999032.0,-0.025,0.024,-0.027,32.69,137.62,0
1999037.0,0.023,-0.005,-0.042,-5.93,-151.24,0
1999042.0,-0.006,0.012,-0.018,32.24,161.87,0
1999047.0,-0.006,0.005,0.004,33.75,57.23,0
1999052.0,-0.013,-0.017,-0.008,-47.71,122.29,0
1999057.0,0.028,-0.01,-0.003,-19.23,-97.07,0
1999062.0,-0.008,0.002,0.023,5.25,19.74,0
1999067.0,-0.006,0.012,0.004,59.61,57.23,0
1999072.0,0.025,0.005,0.025,7.37,-45.0,0
1999077.0,-0.001,0.014,0.037,20.86,1.59,0
1999082.0,0.021,-0.01,0.009,-23.67,-67.4,0
1999087.0,0.006,-0.017,0.064,-14.83,-5.52,0
1999092.0,-0.001,-0.005,-0.011,-24.89,174.42,0
1999097.0,0.018,0.019,-0.001,46.31,-93.28,0
1999102.0,-0.006,-0.01,-0.003,-55.22,120.5,0
1999107.0,-0.001,0.029,0.021,54.29,2.9,0
1999112.0,-0.008,0.021,-0.003,67.39,112.66,0
1999117.0,-0.008,-0.012,0.011,-41.57,36.94,0
1999122.0,0.004,-0.022,0.037,-30.09,-5.75,0
1999127.0,0.001,0.009,0.001,78.49,-45.01,0
1999132.0,0.011,0.005,-0.03,8.3,-159.83,0
1999137.0,0.011,0.009,-0.025,19.05,-156.36,0
1999142.0,-0.011,0.014,-0.032,22.75,161.74,0
1999147.0,0.013,-0.007,-0.006,-26.78,-113.62,0
1999152.0,-0.025,0.012,0.011,23.42,66.36,0
1999157.0,-0.006,0.036,0.021,59.19,15.86,0
1999162.0,-0.001,0.014,-0.02,35.09,177.06,0
1999167.0,0.001,0.017,0.004,76.49,-19.89,0
1999172.0,-0.003,0.002,0.023,5.51,8.52,0
1999177.0,0.006,0.019,-0.02,41.98,-163.07,0
1999182.0,0.009,-0.0,0.025,-0.34,-18.65,0
1999187.0,-0.018,-0.01,0.021,-19.73,40.95,0
1999192.0,-0.006,0.014,-0.025,28.98,166.87,0
1999197.0,-0.025,0.007,-0.018,12.9,125.47,0
1999202.0,-0.003,-0.015,0.013,-46.55,14.44,0
1999207.0,-0.032,-0.0,0.037,-0.19,40.79,0
1999212.0,-0.003,-0.007,0.025,-16.04,7.72,0
1999217.0,-0.008,-0.022,0.006,-64.7,53.22,0
1999222.0,-0.015,0.009,0.001,31.34,84.97,0
1999227.0,-0.006,-0.003,0.047,-3.1,7.09,0
1999232.0,-0.001,0.009,0.001,79.72,37.42,0
1999237.0,-0.013,0.007,-0.011,22.7,129.22,0
1999242.0,0.011,0.017,-0.035,24.61,-162.44,0
1999247.0,0.025,0.041,-0.032,44.73,-141.81,0
1999252.0,0.013,0.009,0.016,24.56,-40.29,0
1999257.0,0.009,0.038,-0.015,65.22,-151.0,0
1999262.0,-0.02,-0.005,-0.013,-11.64,122.79,0
1999267.0,0.025,0.036,-0.015,50.36,-121.34,0
1999272.0,-0.003,0.017,-0.02,39.02,170.35,0
1999277.0,-0.001,-0.022,-0.001,-86.13,135.03,0
1999282.0,-0.03,-0.0,-0.037,-0.19,141.15,0
1999287.0,-0.015,0.021,-0.018,42.26,139.13,0
1999292.0,-0.003,-0.007,-0.03,-13.77,173.42,0
1999297.0,0.023,-0.031,-0.039,-34.5,-149.79,0
1999302.0,-0.001,-0.022,-0.003,-80.62,163.18,0
1999307.0,-0.008,-0.024,0.001,-70.93,80.63,0
1999312.0,0.016,-0.026,-0.011,-54.4,-124.03,0
1999317.0,-0.003,-0.019,0.025,-37.11,7.72,0
1999322.0,-0.006,-0.005,-0.011,-22.23,151.24,0
1999327.0,0.028,-0.017,-0.001,-31.4,-92.15,0
1999332.0,0.009,-0.0,0.009,-0.76,-45.0,0
1999337.0,0.009,-0.036,0.016,-63.62,-28.51,0
1999342.0,-0.008,0.014,-0.001,59.75,97.2,0
1999347.0,0.021,0.024,-0.011,45.84,-117.36,0
1999352.0,-0.013,0.014,0.013,37.34,44.31,0
1999357.0,-0.008,0.038,0.049,37.39,9.48,0
1999362.0,0.013,-0.0,0.009,-0.58,-57.35,0
1999367.0,0.021,0.002,-0.001,6.21,-92.9,0
1999372.0,-0.003,0.017,0.004,72.97,42.46,0
1999377.0,0.011,0.031,-0.003,69.69,-107.43,0
1999382.0,-0.008,-0.01,-0.061,-9.0,172.31,0
1999387.0,-0.008,-0.031,0.021,-54.77,21.84,0
1999392.0,-0.013,-0.026,-0.001,-63.78,94.56,0
1999397.0,-0.003,-0.01,0.032,-16.6,6.03,0
1999402.0,0.011,0.002,-0.006,10.22,-118.06,0
1999407.0,-0.006,0.019,-0.063,16.64,174.74,0
1999412.0,-0.018,0.031,0.054,28.56,18.23,0
1999417.0,0.004,0.007,0.04,10.0,-5.4,0
1999422.0,-0.013,0.002,0.018,5.72,35.68,0
1999427.0,-0.008,-0.01,0.016,-28.76,27.6,0
1999432.0,-0.008,-0.007,-0.063,-6.56,172.6,0
1999437.0,-0.011,0.009,-0.039,13.01,164.9,0
1999442.0,0.001,-0.017,-0.011,-57.69,-172.72,0
1999447.0,-0.001,-0.022,0.006,-73.98,9.58,0
1999452.0,0.006,0.014,-0.011,49.19,-149.93,0
1999457.0,-0.02,0.026,0.021,42.29,44.55,0
1999462.0,-0.023,0.014,-0.001,32.14,92.63,0
1999467.0,-0.015,0.031,0.032,40.74,25.37,0
1999472.0,0.006,-0.003,-0.02,-6.9,-163.07,0
1999477.0,-0.006,0.005,0.016,15.43,20.33,0
1999482.0,0.004,0.017,0.009,60.67,-23.72,0
1999487.0,-0.001,-0.012,-0.058,-11.71,178.98,0
1999492.0,0.016,0.036,0.011,61.83,-55.19,0
1999497.0,0.011,0.019,0.032,29.0,-18.6,0
1999502.0,0.009,0.007,0.004,36.98,-66.29,0
1999507.0,0.006,-0.005,-0.027,-10.0,-167.35,0
1999512.0,-0.003,-0.01,-0.027,-19.44,172.85,0
1999517.0,0.013,0.012,0.006,38.83,-65.25,0
1999522.0,-0.001,-0.029,0.042,-34.48,1.41,0
1999527.0,-0.001,-0.022,0.011,-63.16,5.42,0
1999532.0,0.021,0.002,-0.006,5.98,-105.86,0
1999537.0,-0.011,0.007,-0.001,33.37,95.59,0
1999542.0,0.018,0.012,-0.006,31.83,-107.83,0
1999547.0,-0.013,-0.024,-0.035,-33.13,159.37,0
1999552.0,0.004,0.021,-0.003,76.63,-132.46,0
1999557.0,0.001,-0.022,0.018,-50.08,-4.28,0
1999562.0,0.021,0.014,0.028,22.4,-36.53,0
1999567.0,-0.003,0.014,-0.003,71.14,135.0,0
1999572.0,0.001,0.036,-0.035,45.95,-177.75,0
1999577.0,0.011,-0.019,-0.018,-42.76,-148.44,0
1999582.0,0.025,0.021,0.018,34.5,-54.4,0
1999587.0,-0.003,0.012,0.011,45.87,17.43,0
1999592.0,-0.013,-0.0,0.001,-0.7,84.05,0
1999597.0,0.011,-0.019,-0.027,-33.23,-158.23,0
1999602.0,-0.015,0.002,-0.003,8.06,102.56,0
1999607.0,0.001,0.019,-0.001,84.86,-127.43,0
1999612.0,0.001,-0.0,-0.003,-2.48,-158.43,0
1999617.0,0.016,-0.007,0.028,-12.98,-29.59,0
1999622.0,0.006,-0.005,-0.018,-14.72,-160.95,0
1999627.0,0.009,0.021,-0.001,68.09,-96.93,0
1999632.0,-0.001,-0.029,-0.003,-82.92,163.18,0
1999637.0,0.018,-0.012,0.028,-20.13,-33.19,0
1999642.0,0.009,-0.0,-0.008,-0.77,-133.91,0
1999647.0,-0.011,0.005,0.006,20.68,59.93,0
1999652.0,-0.013,-0.005,0.018,-12.51,35.68,0
1999657.0,0.004,-0.029,-0.02,-54.59,-169.48,0
1999662.0,-0.006,-0.01,0.03,-17.63,10.96,0
1999667.0,0.011,-0.01,0.03,-16.92,-19.97,0
1999672.0,-0.003,-0.019,-0.013,-55.14,165.22,0
1999677.0,0.018,-0.022,-0.02,-38.67,-138.1,0
1999682.0,0.004,-0.005,0.047,-6.01,-4.58,0
1999687.0,-0.03,-0.0,-0.042,-0.18,144.5,0
1999692.0,-0.003,0.024,0.006,73.52,29.18,0
1999697.0,-0.003,0.024,-0.006,74.13,149.5,0
1999702.0,0.013,0.021,-0.011,51.46,-128.54,0
1999707.0,-0.013,-0.024,0.032,-34.56,21.83,0
1999712.0,-0.011,-0.01,-0.03,-17.12,160.38,0
1999717.0,-0.025,-0.024,0.016,-39.23,57.81,0
1999722.0,0.018,-0.015,0.013,-32.86,-53.66,0
1999727.0,-0.013,0.005,0.025,9.24,27.21,0
1999732.0,0.004,0.009,0.023,22.09,-9.3,0
1999737.0,0.001,0.005,0.023,11.41,-3.39,0
1999742.0,-0.02,0.002,0.004,6.21,79.48,0
1999747.0,-0.001,0.014,0.006,66.31,9.58,0
1999752.0,0.013,-0.026,0.023,-45.0,-30.2,0
1999757.0,-0.006,-0.003,0.023,-6.17,14.27,0
1999762.0,-0.006,-0.041,0.035,-49.13,9.48,0
1999767.0,-0.011,-0.029,-0.044,-32.47,166.48,0
1999772.0,-0.025,-0.007,0.023,-12.22,47.48,0
1999777.0,-0.003,-0.0,0.011,-0.8,17.43,0
1999782.0,0.006,-0.003,0.004,-19.53,-58.61,0
1999787.0,-0.035,-0.01,0.006,-15.5,79.92,0
1999792.0,0.006,-0.005,0.023,-11.79,-15.02,0
1999797.0,-0.02,0.038,-0.02,53.18,135.0,0
1999802.0,-0.001,0.019,-0.006,72.69,169.9,0
1999807.0,0.028,0.021,0.004,37.43,-82.29,0
1999812.0,-0.001,0.002,-0.015,8.24,176.15,0
1999817.0,0.013,-0.017,0.001,-51.63,-84.19,0
1999822.0,-0.003,0.009,-0.023,22.4,171.36,0
1999827.0,0.023,-0.007,0.011,-16.13,-64.48,0
1999832.0,-0.003,-0.0,-0.013,-0.68,165.22,0
1999837.0,-0.027,-0.012,-0.013,-21.81,115.42,0
1999842.0,0.011,-0.0,-0.023,-0.36,-154.17,0
1999847.0,-0.008,0.026,0.016,55.87,27.6,0
1999852.0,0.016,-0.019,-0.011,-45.51,-124.03,0
1999857.0,-0.02,0.009,0.006,24.05,73.07,0
1999862.0,-0.013,-0.024,-0.023,-42.76,150.06,0
1999867.0,0.028,-0.012,-0.011,-22.25,-110.97,0
1999872.0,-0.006,0.014,0.009,53.96,34.31,0
1999877.0,0.001,0.014,-0.008,59.61,-170.63,0
1999882.0,-0.008,0.007,-0.015,21.91,151.91,0
1999887.0,-0.006,-0.015,0.006,-59.76,43.48,0
1999892.0,0.013,0.005,0.025,9.2,-27.78,0
1999897.0,0.006,-0.015,-0.015,-41.21,-158.25,0
1999902.0,-0.03,0.005,-0.039,5.36,142.89,0
1999907.0,0.006,-0.015,0.013,-44.7,-24.76,0
1999912.0,0.006,-0.003,0.018,-7.6,-18.74,0
1999917.0,-0.001,-0.029,-0.008,-74.0,172.81,0
1999922.0,-0.006,-0.003,-0.03,-4.81,168.93,0
1999927.0,0.011,-0.0,-0.015,-0.48,-144.63,0
1999932.0,-0.008,0.029,-0.027,44.99,163.29,0
1999937.0,-0.008,-0.01,-0.008,-39.95,135.0,0
1999942.0,-0.003,0.019,0.035,28.46,5.62,0
1999947.0,0.013,-0.012,0.023,-24.6,-30.2,0
1999952.0,-0.006,-0.029,-0.058,-26.17,174.31,0
1999957.0,-0.013,0.012,-0.049,13.13,165.11,0
1999962.0,0.011,0.017,0.011,47.03,-45.0,0
1999967.0,-0.008,-0.017,-0.008,-55.51,135.0,0
1999972.0,-0.008,0.007,-0.013,24.53,147.71,0
1999977.0,0.004,0.017,0.028,30.71,-7.71,0
1999982.0,-0.008,0.007,-0.006,34.88,125.33,0
1999987.0,0.004,0.002,0.042,3.03,-5.1,0
1999992.0,0.021,-0.003,-0.047,-2.88,-156.21,0
1999997.0,0.006,-0.003,-0.001,-22.28,-99.59,0
2000002.0,0.021,-0.003,-0.023,-4.78,-137.76,0
2000007.0,-0.018,0.026,0.013,49.66,53.17,0
2000012.0,0.004,0.031,0.004,80.28,-45.01,0
2000017.0,-0.013,0.002,-0.025,4.54,152.49,0
2000022.0,-0.03,0.012,-0.039,13.46,142.89,0
2000027.0,0.006,-0.012,0.016,-35.7,-21.35,0
2000032.0,0.011,-0.005,0.025,-10.18,-23.37,0
2000037.0,-0.013,0.005,-0.023,10.07,150.06,0
2000042.0,-0.015,-0.024,0.009,-53.84,61.0,0
2000047.0,-0.006,-0.015,0.04,-19.92,8.36,0
2000052.0,-0.013,-0.024,0.001,-61.51,84.05,0
2000057.0,0.009,-0.012,0.011,-41.17,-37.99,0
2000062.0,-0.03,-0.017,-0.006,-29.15,101.08,0
2000067.0,0.037,-0.019,0.013,-26.01,-70.32,0
2000072.0,-0.02,0.017,-0.015,33.17,127.34,0
2000077.0,0.021,-0.0,0.009,-0.41,-67.4,0
2000082.0,0.018,-0.012,-0.013,-28.54,-125.68,0
2000087.0,0.021,0.017,0.042,19.53,-26.0,0
2000092.0,-0.025,-0.034,0.023,-44.82,47.48,0
2000097.0,-0.001,0.005,0.023,11.41,2.59,0
2000102.0,0.001,0.019,0.004,78.14,-19.89,0
2000107.0,0.006,0.017,-0.008,58.27,-143.22,0
2000112.0,-0.013,0.021,-0.008,54.27,122.29,0
2000117.0,0.009,-0.0,0.021,-0.41,-22.6,0
2000122.0,0.028,-0.007,-0.001,-14.84,-92.15,0
2000127.0,-0.03,0.021,-0.006,35.19,101.08,0
2000132.0,0.004,0.009,-0.001,67.55,-105.48,0
2000137.0,-0.018,0.029,0.011,53.83,58.44,0
2000142.0,0.016,0.007,0.044,8.47,-19.48,0
2000147.0,0.001,0.014,-0.03,25.49,-177.39,0
2000152.0,0.001,0.038,0.016,67.53,-4.93,0
2000157.0,-0.02,0.007,-0.013,16.3,122.79,0
2000162.0,-0.015,-0.007,-0.013,-20.01,130.18,0
2000167.0,-0.006,-0.012,0.006,-55.08,43.48,0
2000172.0,0.001,-0.007,-0.02,-19.94,-176.16,0
2000177.0,0.004,-0.005,-0.011,-23.72,-160.54,0
2000182.0,0.018,-0.024,-0.013,-47.22,-125.68,0
2000187.0,-0.006,-0.015,0.006,-59.76,43.48,0
2000192.0,-0.006,0.017,0.001,70.18,76.9,0
2000197.0,0.04,0.017,0.016,21.26,-68.38,0
2000202.0,0.004,0.007,-0.032,12.24,-173.35,0
2000207.0,0.001,-0.007,-0.003,-63.31,-158.43,0
2000212.0,-0.015,-0.022,-0.032,-31.33,154.41,0
2000217.0,0.021,-0.007,0.023,-13.43,-41.84,0
2000222.0,-0.027,-0.019,0.004,-34.95,82.2,0
2000227.0,0.001,-0.019,0.001,-84.33,-45.01,0
2000232.0,-0.015,0.007,0.001,24.43,84.97,0
2000237.0,0.03,0.005,-0.006,8.59,-100.96,0
2000242.0,-0.003,-0.017,-0.032,-27.61,173.91,0
2000247.0,-0.015,0.026,0.009,56.07,61.0,0
2000252.0,-0.003,-0.003,-0.003,-27.75,135.0,0
2000257.0,0.006,0.002,0.028,4.5,-12.51,0
2000262.0,0.001,0.017,0.011,56.43,-7.07,0
2000267.0,0.021,0.002,-0.006,5.98,-105.86,0
2000272.0,-0.018,-0.019,0.028,-30.4,32.73,0
2000277.0,0.009,0.009,-0.018,25.5,-154.37,0
2000282.0,0.013,0.002,-0.011,7.47,-128.54,0
2000287.0,-0.023,-0.003,-0.027,-4.12,140.48,0
2000292.0,0.004,-0.022,0.009,-66.75,-23.72,0
2000297.0,0.001,-0.01,0.011,-41.47,-7.07,0
2000302.0,-0.015,-0.0,0.013,-0.45,49.13,0
2000307.0,0.006,0.007,0.001,48.14,-77.56,0
2000312.0,-0.011,0.005,0.009,18.77,51.19,0
2000317.0,0.018,-0.019,-0.018,-37.25,-134.49,0
2000322.0,0.001,0.007,-0.001,76.33,-127.43,0
2000327.0,0.013,0.014,0.032,22.03,-22.31,0
2000332.0,-0.025,0.012,-0.011,23.52,113.02,0
2000337.0,0.018,0.017,0.016,34.69,-49.05,0
2000342.0,0.001,0.026,0.006,76.48,-12.45,0
2000347.0,0.011,-0.017,0.023,-33.69,-25.52,0
2000352.0,0.001,0.002,-0.008,15.01,-170.63,0
2000357.0,0.011,-0.007,-0.023,-16.31,-154.17,0
2000362.0,-0.001,-0.005,-0.023,-12.34,177.37,0
2000367.0,0.013,0.017,0.009,46.36,-57.35,0
2000372.0,-0.03,0.036,-0.013,47.74,113.61,0
2000377.0,0.035,0.026,0.023,32.1,-56.71,0
2000382.0,0.009,0.017,0.009,53.97,-45.0,0
2000387.0,-0.015,-0.01,-0.015,-24.08,135.0,0
2000392.0,0.025,-0.012,0.009,-24.43,-71.35,0
2000397.0,-0.013,-0.022,-0.027,-35.61,154.58,0
2000402.0,0.023,-0.0,0.032,-0.23,-35.19,0
2000407.0,-0.013,0.012,-0.02,26.19,147.21,0
2000412.0,-0.003,0.012,0.009,52.08,21.9,0
2000417.0,0.009,-0.024,0.009,-63.39,-45.0,0
2000422.0,-0.006,-0.0,0.006,-1.08,43.48,0
2000427.0,-0.008,0.005,0.009,21.33,43.91,0
2000432.0,0.013,0.021,-0.015,46.4,-139.13,0
2000437.0,0.013,-0.012,-0.013,-33.08,-134.31,0
2000442.0,0.011,-0.017,-0.013,-44.87,-139.95,0
2000447.0,-0.03,-0.003,0.018,-4.19,58.68,0
2000452.0,0.042,-0.0,-0.015,-0.2,-110.12,0
2000457.0,-0.039,0.014,-0.039,14.32,135.0,0
2000462.0,-0.006,-0.029,-0.006,-74.08,135.01,0
2000467.0,-0.001,0.031,0.004,82.84,15.47,0
2000472.0,0.016,-0.026,-0.03,-38.2,-152.16,0
2000477.0,0.001,-0.022,0.013,-58.32,-5.81,0
2000482.0,-0.015,0.012,0.018,26.42,40.37,0
2000487.0,0.032,-0.022,-0.003,-33.61,-96.03,0
2000492.0,-0.032,-0.012,-0.032,-14.93,135.0,0
2000497.0,0.009,0.009,0.011,34.17,-37.99,0
2000502.0,-0.006,-0.012,0.011,-44.4,28.05,0
2000507.0,0.016,-0.012,-0.008,-34.36,-117.6,0
2000512.0,0.001,-0.017,-0.063,-14.96,-178.77,0
2000517.0,-0.003,0.007,-0.018,21.18,169.09,0
2000522.0,0.011,-0.022,0.028,-36.1,-21.55,0
2000527.0,-0.015,0.017,0.009,43.31,61.0,0
2000532.0,0.011,-0.005,0.044,-6.17,-13.82,0
2000537.0,-0.018,-0.01,0.006,-27.34,70.95,0
2000542.0,-0.003,0.021,-0.042,27.05,175.3,0
2000547.0,0.013,0.009,0.025,18.23,-27.78,0
2000552.0,-0.006,0.007,0.032,12.01,10.17,0
2000557.0,0.018,-0.024,-0.023,-39.77,-141.27,0
2000562.0,-0.011,-0.005,-0.035,-7.79,162.93,0
2000567.0,0.021,0.002,-0.032,3.35,-147.47,0
2000572.0,0.016,0.009,-0.02,20.2,-142.1,0
2000577.0,-0.001,0.014,0.009,58.81,6.93,0
2000582.0,-0.008,0.014,0.021,32.74,21.84,0
2000587.0,0.028,-0.01,0.037,-11.84,-36.61,0
2000592.0,0.001,0.002,-0.001,52.6,-127.43,0
2000597.0,0.023,0.017,0.001,35.88,-86.61,0
2000602.0,0.013,-0.026,0.006,-61.02,-65.25,0
2000607.0,0.028,0.019,0.004,34.2,-82.29,0
2000612.0,0.018,-0.017,-0.023,-30.3,-141.27,0
2000617.0,0.006,0.024,0.044,27.92,-7.87,0
2000622.0,-0.008,-0.0,-0.011,-0.68,142.25,0
2000627.0,-0.018,-0.0,-0.032,-0.25,151.04,0
2000632.0,0.009,-0.019,-0.025,-36.19,-161.13,0
2000637.0,0.004,0.014,-0.013,46.38,-163.92,0
2000642.0,0.001,-0.0,0.011,-0.83,-7.07,0
2000647.0,0.018,-0.012,-0.011,-30.02,-120.37,0
2000652.0,-0.018,-0.024,0.025,-37.93,35.13,0
2000657.0,0.016,0.002,0.004,7.87,-76.58,0
2000662.0,0.004,-0.019,0.021,-42.81,-10.36,0
2000667.0,-0.03,-0.036,0.016,-46.98,62.16,0
2000672.0,0.009,0.024,0.023,44.21,-20.45,0
2000677.0,0.023,-0.003,0.009,-5.96,-69.56,0
2000682.0,0.004,0.005,-0.006,33.74,-147.23,0
2000687.0,0.03,0.024,0.011,36.61,-70.03,0
2000692.0,-0.001,0.017,0.042,21.53,1.41,0
2000697.0,0.016,0.007,0.016,17.53,-45.0,0
2000702.0,0.004,0.024,0.016,55.8,-13.42,0
2000707.0,0.001,-0.015,-0.001,-83.29,-127.43,0
2000712.0,0.013,0.012,0.013,32.07,-45.0,0
2000717.0,0.011,0.002,-0.02,5.56,-151.57,0
2000722.0,-0.011,-0.015,0.009,-46.84,51.19,0
2000727.0,0.021,0.009,0.009,22.97,-67.4,0
2000732.0,0.004,-0.022,-0.006,-72.29,-147.23,0
2000737.0,-0.008,-0.01,-0.02,-24.07,157.85,0
2000742.0,0.006,0.012,0.042,15.53,-8.31,0
2000747.0,-0.027,-0.022,0.009,-37.13,72.68,0
2000752.0,0.009,0.005,0.013,16.3,-32.65,0
2000757.0,-0.018,-0.005,0.006,-14.72,70.95,0
2000762.0,-0.006,-0.01,0.001,-58.44,76.9,0
2000767.0,0.028,0.012,-0.001,23.08,-92.15,0
2000772.0,-0.03,0.019,0.006,32.0,78.34,0
2000777.0,0.016,0.014,0.021,28.8,-37.47,0
2000782.0,-0.011,-0.003,0.037,-3.77,15.9,0
2000787.0,-0.006,0.005,0.006,28.66,43.48,0
2000792.0,-0.008,0.033,0.03,46.93,15.28,0
2000797.0,-0.025,-0.019,-0.063,-15.85,158.46,0
2000802.0,0.056,0.026,-0.006,24.77,-95.9,0
2000807.0,-0.068,-0.048,0.018,-34.29,75.1,0
2000812.0,0.001,0.009,0.071,7.58,-1.1,0
2000817.0,0.056,0.201,-0.023,73.17,-111.82,0
2000822.0,-0.015,-0.228,-0.08,-70.3,169.11,0
2000827.0,0.21,-0.149,0.442,-16.9,-25.38,0
2000832.0,-0.104,0.201,-0.181,43.96,150.07,0
2000837.0,-0.305,0.328,-0.353,35.09,139.16,0
2000842.0,0.344,0.29,0.238,34.69,-55.26,0
2000847.0,-0.178,-0.412,-0.03,-66.32,99.48,0
2000852.0,-0.181,-0.058,-0.31,-9.13,149.77,0
2000857.0,-0.075,0.462,-0.07,77.42,133.12,0
2000862.0,0.416,-0.206,-0.082,-25.94,-101.22,0
2000867.0,-0.564,-0.094,0.174,-9.01,72.87,0
2000872.0,0.349,-0.697,0.071,-62.96,-78.52,0
2000877.0,-0.257,-0.007,-0.449,-0.81,150.18,0
2000882.0,-0.243,-0.065,-0.712,-4.92,161.17,0
2000887.0,0.023,0.517,0.765,34.04,-1.71,0
2000892.0,-0.238,-0.129,0.449,-14.29,27.93,0
2000897.0,-0.209,0.172,-1.545,6.3,172.29,0
2000902.0,-0.058,-0.232,-0.724,-17.74,175.38,0
2000907.0,-0.181,0.579,1.22,25.16,8.42,0
2000912.0,0.013,-0.05,0.052,-43.41,-14.47,0
2000917.0,-0.154,-0.115,-0.798,-8.06,169.06,0
2000922.0,-0.133,-0.132,0.023,-44.39,80.21,0
2000927.0,-0.128,0.196,0.253,34.7,26.85,0
2000932.0,-0.087,-0.173,-0.667,-14.39,172.55,0
2000937.0,0.083,0.246,0.047,68.9,-60.49,0
2000942.0,-0.003,-0.223,0.55,-22.07,0.36,0
2000947.0,-0.006,0.388,0.14,70.1,2.38,0
2000952.0,0.035,-0.295,-0.456,-32.8,-175.63,0
2000957.0,0.073,0.278,0.131,61.65,-29.26,0
2000962.0,-0.085,-0.237,0.159,-52.72,28.03,0
2000967.0,-0.051,0.292,-0.183,56.93,164.34,0
2000972.0,0.047,-0.206,-0.154,-51.96,-163.11,0
2000977.0,-0.066,0.268,0.325,38.98,11.44,0
2000982.0,0.052,-0.364,-0.051,-78.69,-134.82,0
2000987.0,0.056,0.299,-0.082,71.53,-145.61,0
2000992.0,-0.015,-0.005,0.09,-3.1,9.72,0
2000997.0,0.059,0.213,0.346,31.24,-9.64,0
2001002.0,0.131,-0.268,-0.063,-61.58,-115.85,0
2001007.0,0.028,0.091,0.037,62.92,-36.61,0
2001012.0,0.052,-0.194,-0.138,-52.88,-159.42,0
2001017.0,0.047,0.275,0.107,67.05,-23.7,0
2001022.0,0.076,-0.285,-0.111,-64.75,-145.79,0
2001027.0,-0.032,0.22,0.104,63.62,17.14,0
2001032.0,0.159,-0.194,0.171,-39.67,-42.93,0
2001037.0,0.011,0.179,0.009,85.58,-52.01,0
2001042.0,0.119,-0.11,-0.142,-30.76,-140.17,0
2001047.0,0.133,0.134,0.155,33.29,-40.72,0
2001052.0,0.167,-0.278,-0.224,-44.9,-143.33,0
2001057.0,-0.047,0.108,-0.02,64.76,113.46,0
2001062.0,0.126,-0.096,-0.027,-36.68,-102.27,0
2001067.0,-0.202,0.129,0.176,25.72,48.93,0
2001072.0,0.025,-0.074,0.128,-29.64,-11.16,0
2001077.0,-0.264,0.021,-0.058,4.52,102.48,0
2001082.0,0.119,-0.007,-0.078,-2.96,-123.2,0
2001087.0,-0.085,0.026,0.047,15.12,61.09,0
2001092.0,0.253,-0.359,-0.264,-44.49,-136.29,0
2001097.0,-0.006,-0.017,0.011,-53.79,28.05,0
2001102.0,0.277,-0.012,0.03,-2.5,-83.79,0
2001107.0,-0.035,0.088,0.102,39.41,18.73,0
2001112.0,0.195,-0.098,-0.001,-26.72,-90.3,0
2001117.0,-0.152,0.009,0.032,3.47,77.93,0
2001122.0,0.181,-0.101,0.198,-20.6,-42.47,0
2001127.0,-0.176,0.05,0.107,13.7,58.75,0
2001132.0,-0.319,-0.431,-0.161,-50.3,116.81,0
2001137.0,-0.226,-0.074,0.155,-15.19,55.64,0
2001142.0,0.293,-0.022,-0.303,-2.95,-135.89,0
2001147.0,-0.138,0.024,-0.058,9.04,113.05,0
2001152.0,0.262,-0.01,-0.193,-1.71,-126.28,0
2001157.0,-0.075,-0.103,0.253,-21.36,16.58,0
2001162.0,0.253,-0.125,-0.312,-17.24,-141.01,0
2001167.0,-0.056,0.041,-0.161,13.34,160.84,0
2001172.0,-0.487,-0.225,-0.432,-19.08,131.57,0
2001177.0,-0.207,0.158,0.116,33.63,60.67,0
2001182.0,0.31,-0.218,-0.152,-32.26,-116.09,0
2001187.0,-0.188,0.29,0.061,55.7,71.95,0
2001192.0,0.408,-0.22,-0.41,-20.84,-135.15,0
2001197.0,-0.226,0.256,-0.03,48.31,97.5,0
2001202.0,0.346,-0.292,-0.224,-35.34,-122.87,0
2001207.0,-0.126,0.342,0.042,68.85,71.48,0
2001212.0,-0.47,-0.311,-0.42,-26.28,131.77,0
2001217.0,0.116,0.373,0.037,71.89,-72.23,0
2001222.0,-0.482,-0.371,-0.104,-36.96,102.17,0
2001227.0,0.226,0.318,0.159,48.98,-54.86,0
2001232.0,-0.329,-0.264,-0.379,-27.69,139.06,0
2001237.0,0.262,0.404,0.104,55.09,-68.32,0
2001242.0,-0.193,-0.259,-0.135,-47.72,125.05,0
2001247.0,0.224,0.325,-0.106,52.69,-115.4,0
2001252.0,-0.281,-0.395,-0.327,-42.52,139.28,0
2001257.0,0.188,0.412,0.011,65.4,-86.67,0
2001262.0,-0.487,-0.323,-0.391,-27.37,128.78,0
2001267.0,0.164,0.318,0.102,58.74,-58.17,0
2001272.0,-0.379,-0.345,0.004,-42.28,89.43,0
2001277.0,0.104,0.395,0.143,65.89,-36.18,0
2001282.0,-0.298,-0.338,-0.394,-34.38,142.88,0
2001287.0,0.222,0.282,-0.039,51.44,-100.07,0
2001292.0,-0.221,-0.407,-0.267,-49.59,140.32,0
2001297.0,0.272,0.445,0.071,57.74,-75.41,0
2001302.0,-0.197,-0.218,-0.066,-46.35,108.41,0
2001307.0,0.167,0.294,0.114,55.57,-55.64,0
2001312.0,-0.305,-0.4,-0.37,-39.84,140.47,0
2001317.0,0.1,0.285,0.155,57.15,-32.77,0
2001322.0,-0.303,-0.082,0.119,-14.08,68.59,0
2001327.0,0.042,0.335,0.03,81.23,-54.42,0
2001332.0,-0.284,-0.448,-0.528,-36.78,151.75,0
2001337.0,0.243,0.297,0.076,49.36,-72.74,0
2001342.0,-0.135,-0.278,0.013,-63.96,84.37,0
2001347.0,0.202,0.481,0.044,66.69,-77.62,0
2001352.0,-0.205,-0.386,-0.437,-38.64,154.91,0
2001357.0,0.171,0.225,0.013,52.61,-85.55,0
2001362.0,-0.252,-0.259,-0.07,-44.63,105.6,0
2001367.0,0.03,0.419,0.176,66.9,-9.69,0
2001372.0,-0.238,-0.199,0.102,-37.52,66.82,0
2001377.0,-0.001,0.172,0.119,55.43,0.5,0
2001382.0,-0.272,-0.321,-0.372,-34.87,143.88,0
2001387.0,0.042,0.359,-0.068,77.43,-148.29,0
2001392.0,-0.094,-0.208,-0.154,-49.05,148.53,0
2001397.0,0.155,0.28,-0.051,59.81,-108.36,0
2001402.0,-0.178,-0.41,-0.451,-40.18,158.45,0
2001407.0,0.107,0.471,-0.037,76.53,-109.1,0
2001412.0,-0.102,-0.366,0.016,-74.33,81.2,0
2001417.0,0.095,0.342,0.286,48.62,-18.31,0
2001422.0,-0.26,-0.462,-0.217,-53.82,129.83,0
2001427.0,0.047,0.433,0.018,83.39,-68.86,0
2001432.0,-0.221,-0.225,-0.006,-45.49,91.51,0
2001437.0,0.054,0.342,0.131,67.55,-22.47,0
2001442.0,-0.14,-0.424,-0.221,-58.3,147.7,0
2001447.0,0.19,0.34,0.056,59.69,-73.5,0
2001452.0,0.032,-0.364,-0.128,-70.07,-165.75,0
2001457.0,0.162,0.424,-0.023,68.91,-97.95,0
2001462.0,-0.135,-0.362,-0.138,-61.94,135.5,0
2001467.0,0.066,0.373,0.1,72.26,-33.55,0
2001472.0,-0.114,-0.383,-0.133,-65.5,139.45,0
2001477.0,0.111,0.381,0.214,57.58,-27.47,0
2001482.0,-0.058,-0.364,-0.123,-69.47,154.59,0
2001487.0,-0.013,0.385,-0.037,84.19,160.61,0
2001492.0,-0.087,-0.431,-0.202,-62.95,156.66,0
2001497.0,0.004,0.325,0.174,61.9,-1.24,0
2001502.0,-0.011,-0.266,0.174,-56.79,3.5,0
2001507.0,0.042,0.361,0.298,50.19,-8.03,0
2001512.0,-0.07,-0.173,-0.152,-45.86,155.11,0
2001517.0,0.03,0.165,-0.039,73.29,-142.6,0
2001522.0,0.056,-0.252,-0.109,-64.03,-152.58,0
2001527.0,0.155,0.323,0.109,59.64,-54.79,0
2001532.0,0.176,-0.273,-0.121,-51.98,-124.43,0
2001537.0,0.205,0.261,-0.19,43.02,-132.87,0
2001542.0,0.092,-0.249,-0.2,-48.55,-155.19,0
2001547.0,-0.109,0.273,0.097,61.87,48.24,0
2001552.0,-0.03,-0.127,-0.044,-67.27,146.0,0
2001557.0,-0.202,0.098,0.119,22.69,59.59,0
2001562.0,-0.178,-0.22,-0.085,-48.16,115.46,0
2001567.0,-0.228,0.244,0.116,43.59,63.03,0
2001572.0,0.04,-0.072,0.329,-12.24,-6.87,0
2001577.0,-0.032,0.172,0.214,38.46,8.53,0
2001582.0,0.171,-0.302,-0.466,-31.32,-159.79,0
2001587.0,0.023,0.246,-0.183,53.19,-172.87,0
2001592.0,0.255,-0.137,0.246,-21.1,-46.1,0
2001597.0,0.054,0.234,0.119,60.92,-24.48,0
2001602.0,0.128,-0.297,-0.193,-52.08,-146.34,0
2001607.0,-0.123,0.179,0.121,46.09,45.49,0
2001612.0,0.049,-0.132,0.009,-69.24,-80.16,0
2001617.0,-0.195,0.06,-0.164,13.19,130.04,0
2001622.0,0.109,-0.12,0.167,-31.05,-33.23,0
2001627.0,-0.169,0.16,0.205,31.13,39.46,0
2001632.0,0.207,-0.101,-0.24,-17.6,-139.24,0
2001637.0,-0.066,0.143,-0.114,47.56,149.96,0
2001642.0,0.157,-0.151,0.296,-24.27,-27.95,0
2001647.0,-0.061,0.249,0.143,58.07,23.12,0
2001652.0,0.193,-0.273,-0.451,-29.1,-156.85,0
2001657.0,-0.149,0.062,-0.044,21.72,106.45,0
2001662.0,0.138,-0.218,0.109,-51.12,-51.64,0
2001667.0,-0.214,0.163,-0.058,36.23,105.28,0
2001672.0,0.102,0.086,-0.073,34.48,-125.56,0
2001677.0,-0.073,0.055,0.179,15.89,22.2,0
2001682.0,0.176,-0.122,0.088,-31.87,-63.57,0
2001687.0,-0.173,-0.079,-0.166,-18.24,133.79,0
2001692.0,0.27,-0.235,-0.159,-36.88,-120.55,0
2001697.0,-0.149,0.064,0.126,18.26,49.9,0
2001702.0,0.286,-0.055,0.061,-10.68,-77.93,0
2001707.0,-0.114,-0.067,-0.037,-29.37,108.02,0
2001712.0,0.26,0.086,0.27,12.94,-43.96,0
2001717.0,-0.166,-0.043,0.217,-9.0,37.48,0
2001722.0,0.313,0.06,0.133,9.97,-66.95,0
2001727.0,-0.08,-0.129,0.073,-50.04,47.56,0
2001732.0,-0.334,-0.302,-0.181,-38.49,118.41,0
2001737.0,-0.228,-0.07,0.013,-16.91,86.66,0
2001742.0,0.32,0.11,-0.322,13.62,-135.19,0
2001747.0,-0.152,-0.082,0.061,-26.48,68.05,0
2001752.0,0.349,0.06,-0.197,8.48,-119.52,0
2001757.0,-0.233,-0.237,0.042,-45.02,79.78,0
2001762.0,0.305,0.053,-0.319,6.78,-136.29,0
2001767.0,-0.188,-0.01,0.116,-2.52,58.23,0
2001772.0,-0.372,-0.407,-0.195,-44.1,117.65,0
2001777.0,-0.264,0.244,-0.142,39.1,118.29,0
2001782.0,0.284,-0.216,-0.224,-30.82,-128.24,0
2001787.0,-0.248,0.318,0.274,40.74,42.08,0
2001792.0,0.303,-0.299,-0.106,-43.0,-109.34,0
2001797.0,-0.267,0.306,-0.092,47.34,109.03,0
2001802.0,0.334,-0.438,-0.396,-40.22,-139.85,0
2001807.0,-0.154,0.431,0.049,69.4,72.3,0
2001812.0,-0.181,-0.402,-0.185,-57.25,135.75,0
2001817.0,0.293,0.366,0.078,50.33,-75.12,0
2001822.0,-0.296,-0.35,-0.202,-44.33,124.37,0
2001827.0,0.181,0.404,0.126,61.41,-55.18,0
2001832.0,-0.494,-0.343,-0.319,-30.2,122.88,0
2001837.0,0.169,0.34,0.001,63.56,-89.54,0
2001842.0,-0.492,-0.271,-0.252,-26.09,117.17,0
2001847.0,0.143,0.335,0.097,62.75,-55.74,0
2001852.0,-0.116,-0.299,-0.231,-49.21,153.33,0
2001857.0,0.255,0.258,-0.233,36.78,-132.44,0
2001862.0,-0.262,-0.443,-0.384,-43.62,145.7,0
2001867.0,0.128,0.493,0.131,69.63,-44.47,0
2001872.0,-0.351,-0.393,-0.126,-46.53,109.7,0
2001877.0,0.15,0.404,0.138,63.28,-47.38,0
2001882.0,-0.449,-0.438,-0.317,-38.58,125.24,0
2001887.0,0.128,0.4,0.083,69.1,-57.17,0
2001892.0,-0.25,-0.18,-0.035,-35.45,97.87,0
2001897.0,0.135,0.273,-0.008,63.55,-93.47,0
2001902.0,-0.24,-0.292,-0.389,-32.59,148.27,0
2001907.0,0.092,0.275,-0.035,70.29,-110.52,0
2001912.0,-0.176,-0.366,-0.25,-50.17,144.89,0
2001917.0,0.241,0.383,0.018,57.77,-85.7,0
2001922.0,-0.238,-0.29,-0.293,-37.51,140.92,0
2001927.0,0.21,0.404,0.097,60.26,-65.14,0
2001932.0,-0.243,-0.493,-0.133,-60.71,118.66,0
2001937.0,0.061,0.4,0.143,68.78,-23.23,0
2001942.0,-0.281,-0.328,-0.039,-49.14,97.97,0
2001947.0,-0.003,0.493,0.258,62.42,0.76,0
2001952.0,-0.173,-0.335,-0.114,-58.28,123.22,0
2001957.0,0.109,0.342,0.056,70.26,-62.65,0
2001962.0,-0.14,-0.295,-0.288,-42.59,154.12,0
2001967.0,0.202,0.335,-0.149,53.09,-126.44,0
2001972.0,-0.063,-0.259,-0.183,-53.19,160.92,0
2001977.0,0.157,0.359,0.162,57.87,-44.14,0
2001982.0,-0.126,-0.29,-0.233,-47.57,151.71,0
2001987.0,0.059,0.359,-0.015,80.39,-104.68,0
2001992.0,-0.197,-0.417,-0.015,-64.59,94.46,0
2001997.0,-0.011,0.359,0.262,53.82,2.32,0
2002002.0,-0.193,-0.292,-0.118,-52.28,121.57,0
2002007.0,0.001,0.376,0.004,89.39,-19.89,0
2002012.0,-0.166,-0.436,-0.138,-63.67,129.6,0
2002017.0,0.08,0.321,0.155,61.48,-27.47,0
2002022.0,-0.03,-0.242,-0.221,-47.3,172.34,0
2002027.0,0.028,0.443,-0.025,85.19,-132.05,0
2002032.0,-0.099,-0.295,-0.092,-65.33,132.85,0
2002037.0,0.037,0.27,0.025,80.54,-55.83,0
2002042.0,-0.106,-0.41,-0.281,-53.72,159.27,0
2002047.0,0.013,0.4,0.183,65.3,-4.16,0
2002052.0,-0.09,-0.304,0.107,-65.39,40.03,0
2002057.0,0.104,0.297,-0.08,66.1,-127.5,0
2002062.0,-0.066,-0.338,-0.286,-49.02,167.06,0
2002067.0,-0.006,0.347,0.159,65.32,2.09,0
2002072.0,-0.056,-0.161,-0.161,-43.21,160.84,0
2002077.0,-0.013,0.27,0.011,86.4,49.95,0
2002082.0,-0.073,-0.364,0.08,-73.41,42.2,0
2002087.0,-0.02,0.39,0.114,73.49,10.05,0
2002092.0,-0.037,-0.331,-0.274,-50.09,172.32,0
2002097.0,0.049,0.28,0.104,67.61,-25.27,0
2002102.0,0.049,-0.352,0.179,-62.26,-15.42,0
2002107.0,-0.03,0.39,0.102,74.77,16.28,0
2002112.0,0.044,-0.22,-0.252,-40.7,-170.01,0
2002117.0,0.064,0.256,-0.008,75.94,-97.36,0
2002122.0,0.018,-0.28,0.152,-61.33,-6.79,0
2002127.0,0.035,0.299,0.32,42.92,-6.22,0
2002132.0,0.052,-0.208,-0.114,-59.1,-155.55,0
2002137.0,-0.037,0.163,-0.078,62.13,154.55,0
2002142.0,0.104,-0.247,0.126,-56.48,-39.65,0
2002147.0,0.068,0.23,0.152,54.0,-24.2,0
2002152.0,-0.008,-0.134,-0.274,-26.09,178.28,0
2002157.0,0.258,0.313,0.03,50.41,-83.34,0
2002162.0,0.107,-0.271,0.061,-65.56,-60.16,0
2002167.0,-0.238,0.211,-0.114,38.6,115.5,0
2002172.0,0.035,-0.218,-0.13,-58.25,-165.02,0
2002177.0,-0.023,0.225,0.231,44.07,5.58,0
2002182.0,0.131,-0.244,-0.011,-61.79,-94.65,0
2002187.0,-0.142,0.151,-0.367,20.93,158.83,0
2002192.0,0.179,-0.144,0.104,-34.82,-59.7,0
2002197.0,-0.011,0.175,0.538,17.99,1.13,0
2002202.0,0.088,0.007,-0.094,3.12,-137.16,0
2002207.0,-0.13,0.014,-0.415,1.87,162.58,0
2002212.0,0.128,-0.151,0.109,-41.89,-49.61,0
2002217.0,-0.092,0.11,0.334,17.6,15.4,0
2002222.0,0.109,-0.058,-0.02,-27.44,-100.49,0
2002227.0,-0.152,0.194,-0.037,51.11,103.67,0
2002232.0,0.133,-0.065,0.15,-17.92,-41.61,0
2002237.0,-0.087,0.002,0.037,1.35,66.87,0
2002242.0,0.26,-0.156,0.025,-30.82,-84.44,0
2002247.0,-0.03,0.141,0.188,36.53,8.99,0
2002252.0,0.281,-0.003,-0.286,-0.36,-135.45,0
2002257.0,-0.149,-0.005,-0.121,-1.48,128.93,0
2002262.0,0.349,-0.189,0.076,-27.96,-77.76,0
2002267.0,-0.073,0.081,0.281,15.61,14.51,0
2002272.0,0.281,0.036,0.246,5.47,-48.9,0
2002277.0,-0.169,0.029,0.143,7.37,49.78,0
2002282.0,0.36,-0.036,0.167,-5.19,-65.2,0
2002287.0,-0.118,-0.101,-0.03,-39.53,104.12,0
2002292.0,-0.252,-0.18,-0.195,-29.4,127.68,0
2002297.0,-0.099,-0.158,0.035,-56.39,70.63,0
2002302.0,0.351,0.148,0.116,21.86,-71.67,0
2002307.0,-0.164,-0.218,0.035,-52.46,77.98,0
2002312.0,0.248,0.199,0.212,31.32,-49.46,0
2002317.0,-0.315,-0.115,0.231,-16.42,53.69,0
2002322.0,0.219,0.143,0.248,23.44,-41.48,0
2002327.0,-0.339,-0.089,0.018,-14.67,86.94,0
2002332.0,-0.19,-0.371,-0.123,-58.61,122.92,0
2002337.0,-0.169,-0.161,-0.015,-43.48,95.22,0
2002342.0,0.502,-0.019,-0.348,-1.81,-124.76,0
2002347.0,-0.123,-0.137,0.04,-46.56,72.15,0
2002352.0,0.451,0.246,-0.279,24.91,-121.69,0
2002357.0,-0.2,-0.158,-0.154,-32.08,127.68,0
2002362.0,0.272,0.132,-0.173,22.19,-122.53,0
2002367.0,-0.343,0.448,0.36,41.95,43.61,0
2002372.0,-0.341,-0.352,-0.284,-38.45,129.74,0
2002377.0,-0.406,0.323,0.001,38.53,89.81,0
2002382.0,0.368,-0.283,0.052,-37.28,-82.01,0
2002387.0,-0.164,0.366,0.021,65.73,82.86,0
2002392.0,0.358,-0.304,-0.492,-26.57,-143.94,0
2002397.0,-0.233,0.347,0.03,55.87,82.65,0
2002402.0,0.449,-0.366,-0.02,-39.19,-92.57,0
2002407.0,-0.224,0.354,0.109,54.9,64.0,0
2002412.0,-0.43,-0.321,-0.401,-28.65,133.02,0
2002417.0,0.006,0.361,0.021,86.61,-16.68,0
2002422.0,-0.442,-0.355,-0.111,-37.9,104.13,0
2002427.0,0.037,0.273,0.018,81.36,-64.08,0
2002432.0,-0.329,-0.302,-0.36,-31.75,137.59,0
2002437.0,0.301,0.409,-0.015,53.66,-92.93,0
2002442.0,-0.195,-0.417,-0.387,-43.91,153.23,0
2002447.0,0.274,0.282,-0.114,43.56,-112.49,0
2002452.0,-0.147,-0.366,-0.178,-57.77,140.47,0
2002457.0,0.123,0.46,0.174,65.12,-35.4,0
2002462.0,-0.353,-0.275,-0.293,-30.98,129.71,0
2002467.0,-0.073,0.34,0.04,76.28,61.44,0
2002472.0,-0.236,-0.434,0.174,-55.97,53.6,0
2002477.0,0.076,0.414,0.351,49.08,-12.15,0
2002482.0,-0.233,-0.369,-0.377,-39.77,148.25,0
2002487.0,0.164,0.428,-0.128,64.09,-127.93,0
2002492.0,-0.003,-0.422,-0.171,-67.91,178.85,0
2002497.0,0.274,0.297,0.023,47.15,-85.23,0
2002502.0,-0.233,-0.254,-0.319,-32.7,143.86,0
2002507.0,0.167,0.294,0.083,57.71,-63.58,0
2002512.0,-0.358,-0.283,-0.049,-38.05,97.79,0
2002517.0,0.219,0.179,0.181,32.26,-50.47,0
2002522.0,-0.425,-0.223,-0.221,-24.95,117.52,0
2002527.0,-0.082,0.392,0.147,66.72,29.22,0
2002532.0,-0.238,-0.374,-0.145,-53.29,121.29,0
2002537.0,0.061,0.395,-0.054,78.35,-131.27,0
2002542.0,-0.181,-0.457,-0.296,-52.87,148.57,0
2002547.0,0.123,0.388,0.121,65.96,-45.56,0
2002552.0,0.095,-0.266,-0.085,-64.44,-131.85,0
2002557.0,0.104,0.313,-0.006,71.57,-93.2,0
2002562.0,-0.195,-0.355,-0.221,-50.24,138.62,0
2002567.0,0.042,0.318,0.107,70.18,-21.51,0
2002572.0,-0.116,-0.355,-0.106,-66.06,132.53,0
2002577.0,0.078,0.407,0.1,72.74,-38.08,0
2002582.0,-0.164,-0.311,0.032,-61.79,78.79,0
2002587.0,0.076,0.34,0.169,61.42,-24.1,0
2002592.0,-0.02,-0.266,-0.331,-38.69,176.51,0
2002597.0,0.047,0.175,-0.157,46.88,-163.35,0
2002602.0,0.021,-0.252,-0.094,-68.99,-167.74,0
2002607.0,0.004,0.325,0.253,52.16,-0.85,0
2002612.0,-0.197,-0.259,-0.195,-43.0,134.65,0
2002617.0,-0.159,0.309,-0.188,51.44,139.74,0
2002622.0,-0.145,-0.321,0.023,-65.47,81.01,0
2002627.0,0.071,0.361,0.408,41.08,-9.83,0
2002632.0,-0.051,-0.287,-0.094,-69.5,151.47,0
2002637.0,0.073,0.256,-0.236,46.05,-162.75,0
2002642.0,0.076,-0.331,-0.013,-76.94,-99.77,0
2002647.0,0.229,0.352,0.428,35.96,-28.16,0
2002652.0,0.028,-0.338,-0.324,-46.06,-175.12,0
2002657.0,0.157,0.342,-0.396,38.77,-158.38,0
2002662.0,0.095,-0.311,0.08,-68.25,-49.69,0
2002667.0,-0.178,0.404,0.394,43.09,24.34,0
2002672.0,-0.068,-0.335,-0.102,-69.96,146.18,0
2002677.0,-0.135,0.27,-0.169,51.37,141.3,0
2002682.0,0.076,-0.271,0.042,-72.28,-60.9,0
2002687.0,0.167,0.28,0.27,41.47,-31.72,0
2002692.0,0.169,-0.283,0.023,-58.9,-82.28,0
2002697.0,0.198,0.273,0.083,51.85,-67.28,0
2002702.0,0.054,-0.323,-0.257,-50.9,-168.14,0
2002707.0,-0.025,0.299,0.085,73.48,16.35,0
2002712.0,0.04,-0.232,0.301,-37.47,-7.52,0
2002717.0,-0.3,0.218,0.183,31.75,58.6,0
2002722.0,-0.001,-0.182,-0.106,-59.71,179.44,0
2002727.0,-0.133,0.215,0.025,57.89,79.21,0
2002732.0,0.121,-0.331,-0.07,-67.03,-120.2,0
2002737.0,0.037,0.22,-0.015,79.62,-112.46,0
2002742.0,0.19,-0.295,-0.157,-50.07,-129.43,0
2002747.0,0.078,0.381,0.021,78.04,-75.26,0
2002752.0,0.15,-0.158,-0.094,-41.77,-122.22,0
2002757.0,-0.092,0.055,-0.039,28.75,113.15,0
2002762.0,0.009,-0.287,0.286,-45.11,-1.71,0
2002767.0,-0.209,0.141,0.31,20.66,34.01,0
2002772.0,0.035,0.053,-0.094,27.55,-159.73,0
2002777.0,-0.085,0.108,0.054,46.93,57.51,0
2002782.0,0.174,-0.208,0.222,-36.51,-38.09,0
2002787.0,0.013,0.088,0.006,80.58,-65.25,0
2002792.0,0.298,-0.098,-0.188,-15.59,-122.2,0
2002797.0,-0.149,0.064,-0.056,21.99,110.57,0
2002802.0,0.286,-0.065,0.052,-12.56,-79.78,0
2002807.0,-0.147,0.026,-0.003,10.09,91.34,0
2002812.0,0.193,-0.019,-0.102,-5.06,-117.78,0
2002817.0,-0.202,0.014,0.152,3.21,53.03,0
2002822.0,0.018,-0.084,0.068,-49.88,-14.84,0
2002827.0,-0.214,-0.034,-0.116,-7.87,118.44,0
2002832.0,0.159,-0.003,0.052,-0.87,-72.05,0
2002837.0,-0.236,0.072,0.123,15.08,62.35,0
2002842.0,0.26,-0.0,-0.015,-0.04,-93.39,0
2002847.0,-0.221,-0.029,-0.114,-6.62,117.17,0
2002852.0,0.399,-0.06,-0.147,-8.04,-110.25,0
2002857.0,-0.178,0.012,0.071,3.52,68.34,0
2002862.0,0.377,0.012,0.052,1.78,-82.21,0
2002867.0,-0.126,-0.072,-0.015,-29.65,97.0,0
2002872.0,0.234,0.136,0.186,24.55,-51.52,0
2002877.0,-0.305,-0.18,0.049,-30.18,80.83,0
2002882.0,0.265,0.11,0.104,21.13,-68.49,0
2002887.0,-0.197,-0.053,0.009,-14.97,87.52,0
2002892.0,-0.291,-0.347,-0.209,-44.11,125.75,0
2002897.0,-0.296,-0.161,-0.085,-27.58,106.02,0
2002902.0,0.131,0.057,0.102,19.08,-52.04,0
2002907.0,-0.166,-0.041,0.119,-11.31,54.48,0
2002912.0,0.217,0.024,0.092,5.76,-66.93,0
2002917.0,-0.224,-0.213,-0.054,-42.83,103.5,0
2002922.0,0.428,0.122,-0.31,13.0,-125.94,0
2002927.0,-0.178,-0.127,0.035,-34.98,78.93,0
2002932.0,-0.279,-0.376,-0.252,-45.0,132.16,0
2002937.0,-0.262,-0.23,0.066,-40.41,75.86,0
2002942.0,0.241,0.033,-0.272,5.25,-138.44,0
2002947.0,-0.276,-0.252,0.25,-34.0,47.83,0
2002952.0,0.375,0.211,-0.145,27.65,-111.11,0
2002957.0,-0.329,-0.185,0.021,-29.23,86.43,0
2002962.0,0.368,-0.299,-0.319,-31.58,-130.99,0
2002967.0,-0.25,0.323,-0.001,52.26,90.24,0
2002972.0,-0.272,-0.252,-0.111,-40.6,112.26,0
2002977.0,-0.226,0.275,0.054,49.81,76.56,0
2002982.0,0.387,-0.252,-0.501,-21.66,-142.35,0
2002987.0,-0.358,0.321,-0.082,41.13,102.98,0
2002992.0,0.497,-0.201,0.032,-22.01,-86.26,0
2002997.0,-0.334,0.321,0.231,38.3,55.29,0
2003002.0,0.428,-0.304,-0.485,-25.21,-138.58,0
2003007.0,0.377,0.369,-0.149,42.25,-111.62,0
2003012.0,-0.518,-0.35,-0.006,-34.01,90.64,0
2003017.0,0.229,0.364,0.128,54.21,-60.73,0
2003022.0,-0.121,-0.343,-0.367,-41.53,161.8,0
2003027.0,0.095,0.364,0.195,59.18,-25.88,0
2003032.0,-0.169,-0.261,0.042,-56.35,76.0,0
2003037.0,0.023,0.29,-0.106,69.4,-167.85,0
2003042.0,-0.3,-0.244,-0.262,-31.51,131.1,0
2003047.0,0.071,0.232,0.205,46.96,-19.06,0
2003052.0,-0.159,-0.28,-0.118,-54.73,126.65,0
2003057.0,0.092,0.316,0.037,72.5,-68.02,0
2003062.0,-0.224,-0.252,-0.164,-42.21,126.22,0
2003067.0,0.212,0.4,0.037,61.69,-80.03,0
2003072.0,-0.157,-0.491,-0.329,-53.41,154.54,0
2003077.0,0.159,0.414,0.023,68.75,-81.82,0
2003082.0,-0.24,-0.395,-0.276,-47.17,138.98,0
2003087.0,0.138,0.471,0.052,72.66,-69.46,0
2003092.0,-0.073,-0.491,-0.111,-74.85,146.76,0
2003097.0,-0.044,0.328,0.095,72.32,24.98,0
2003102.0,-0.121,-0.35,-0.437,-37.66,164.55,0
2003107.0,-0.238,0.495,-0.07,63.38,106.49,0
2003112.0,0.076,-0.39,-0.051,-76.83,-124.18,0
2003117.0,-0.147,0.376,0.325,46.52,24.38,0
2003122.0,-0.358,-0.366,-0.296,-38.3,129.56,0
2003127.0,0.068,0.416,-0.135,70.02,-153.15,0
2003132.0,-0.102,-0.465,-0.116,-71.64,138.78,0
2003137.0,0.131,0.404,0.176,61.53,-36.57,0
2003142.0,0.078,-0.45,-0.145,-69.95,-151.68,0
2003147.0,0.109,0.39,0.186,61.1,-30.43,0
2003152.0,-0.013,-0.249,0.088,-70.44,8.45,0
2003157.0,-0.001,0.165,0.021,82.91,2.9,0
2003162.0,-0.126,-0.235,-0.205,-44.37,148.46,0
2003167.0,-0.02,0.376,0.179,64.44,6.45,0
2003172.0,-0.082,-0.283,-0.013,-73.55,98.97,0
2003177.0,0.085,0.234,-0.19,48.37,-155.88,0
2003182.0,0.078,-0.467,-0.307,-55.81,-165.77,0
2003187.0,0.018,0.416,0.068,80.36,-14.84,0
2003192.0,-0.047,-0.242,-0.114,-63.11,157.72,0
2003197.0,-0.02,0.342,0.016,85.72,52.09,0
2003202.0,-0.195,-0.422,-0.092,-62.91,115.27,0
2003207.0,-0.128,0.342,0.162,58.92,38.34,0
2003212.0,-0.185,-0.386,0.054,-63.4,73.75,0
2003217.0,-0.027,0.479,0.195,67.61,7.98,0
2003222.0,-0.056,-0.304,-0.099,-69.46,150.51,0
2003227.0,0.061,0.213,0.009,73.81,-82.06,0
2003232.0,0.325,-0.328,0.004,-45.31,-89.34,0
2003237.0,0.083,0.266,-0.058,69.11,-125.25,0
2003242.0,0.164,-0.115,-0.14,-28.08,-130.44,0
2003247.0,0.143,0.179,0.164,39.52,-40.98,0
2003252.0,0.047,-0.271,0.021,-79.3,-66.36,0
2003257.0,-0.159,0.213,-0.037,52.52,103.08,0
2003262.0,-0.058,-0.185,-0.092,-59.42,147.55,0
2003267.0,-0.228,0.321,0.265,42.52,40.8,0
2003272.0,-0.147,-0.235,0.006,-57.91,87.61,0
2003277.0,-0.178,0.146,-0.001,39.3,90.33,0
2003282.0,0.095,-0.208,-0.104,-55.99,-137.67,0
2003287.0,0.016,0.323,0.076,76.56,-11.75,0
2003292.0,0.296,-0.168,-0.006,-29.55,-91.13,0
2003297.0,0.147,0.182,0.092,46.27,-57.94,0
2003302.0,0.171,-0.378,-0.157,-58.47,-132.44,0
2003307.0,-0.149,0.225,-0.212,40.95,144.78,0
2003312.0,0.042,-0.103,0.102,-43.08,-22.43,0
2003317.0,-0.217,0.153,0.32,21.62,34.1,0
2003322.0,0.025,-0.185,0.157,-49.25,-9.16,0
2003327.0,-0.161,0.11,-0.054,32.88,108.4,0
2003332.0,0.04,-0.086,-0.047,-54.7,-139.55,0
2003337.0,-0.114,0.122,-0.001,47.04,90.52,0
2003342.0,0.241,-0.211,-0.094,-39.19,-111.41,0
2003347.0,-0.061,0.096,-0.035,53.78,119.58,0
2003352.0,0.298,-0.034,0.133,-5.89,-65.96,0
2003357.0,-0.13,0.105,0.056,36.53,66.59,0
2003362.0,0.214,-0.06,0.001,-15.63,-89.64,0
2003367.0,-0.114,0.062,0.181,16.21,32.12,0
2003372.0,0.147,-0.062,0.14,-17.05,-46.43,0
2003377.0,-0.121,0.012,0.092,4.44,52.59,0
2003382.0,0.202,-0.055,0.08,-14.23,-68.35,0
2003387.0,-0.178,0.1,-0.003,29.39,91.1,0
2003392.0,0.368,-0.012,0.056,-1.87,-81.28,0
2003397.0,-0.197,-0.041,-0.128,-9.86,122.95,0
2003402.0,0.181,-0.089,0.054,-25.17,-73.37,0
2003407.0,-0.181,0.014,0.147,3.49,50.78,0
2003412.0,0.317,0.112,-0.25,15.54,-128.23,0
2003417.0,-0.171,-0.074,0.138,-18.71,51.14,0
2003422.0,0.267,0.026,0.121,5.1,-65.62,0
2003427.0,-0.147,-0.161,-0.006,-47.49,92.27,0
2003432.0,0.315,0.246,0.126,36.0,-68.22,0
2003437.0,-0.231,-0.115,0.095,-24.76,67.69,0
2003442.0,0.392,0.084,0.097,11.71,-76.07,0
2003447.0,-0.135,-0.201,-0.236,-36.54,150.17,0
2003452.0,0.349,-0.355,-0.169,-42.48,-115.82,0
2003457.0,-0.26,-0.127,0.226,-20.25,48.91,0
2003462.0,0.174,0.148,0.097,36.68,-60.79,0
2003467.0,-0.298,-0.146,-0.272,-19.93,132.35,0
2003472.0,0.286,0.211,0.202,30.98,-54.73,0
2003477.0,-0.327,-0.132,0.234,-18.18,54.43,0
2003482.0,0.394,0.019,-0.044,2.74,-96.39,0
2003487.0,-0.329,-0.196,-0.264,-24.96,128.78,0
2003492.0,-0.267,-0.347,-0.006,-52.46,91.25,0
2003497.0,-0.281,-0.103,0.032,-20.02,83.41,0
2003502.0,0.277,0.086,0.013,17.25,-87.24,0
2003507.0,-0.312,-0.208,-0.013,-33.7,92.39,0
2003512.0,0.349,0.153,0.114,22.66,-71.9,0
2003517.0,-0.252,-0.199,-0.099,-36.25,111.45,0
2003522.0,0.399,0.206,-0.118,26.32,-106.53,0
2003527.0,-0.166,-0.242,0.181,-44.56,42.58,0
2003532.0,-0.312,-0.398,-0.521,-33.22,149.04,0
2003537.0,-0.331,-0.29,-0.032,-41.04,95.54,0
2003542.0,0.36,0.306,0.116,38.96,-72.12,0
2003547.0,-0.252,-0.264,0.193,-39.68,52.61,0
2003552.0,0.346,0.234,-0.48,21.62,-144.2,0
2003557.0,-0.331,0.392,-0.023,49.76,93.9,0
2003562.0,0.49,-0.333,-0.118,-33.46,-103.59,0
2003567.0,-0.31,0.376,0.126,48.32,67.9,0
2003572.0,-0.327,-0.453,-0.26,-47.33,128.48,0
2003577.0,-0.288,0.364,0.028,51.47,84.51,0
2003582.0,0.394,-0.359,-0.303,-35.87,-127.53,0
2003587.0,-0.243,0.46,-0.008,62.13,91.94,0
2003592.0,0.396,-0.371,-0.08,-42.55,-101.42,0
2003597.0,-0.245,0.392,0.214,50.31,48.83,0
2003602.0,-0.205,-0.383,-0.473,-36.65,156.6,0
2003607.0,0.09,0.256,0.047,68.39,-62.49,0
2003612.0,-0.236,-0.287,0.083,-49.01,70.65,0
2003617.0,0.143,0.395,0.08,67.48,-60.6,0
2003622.0,-0.257,-0.323,-0.331,-37.62,142.19,0
2003627.0,0.076,0.304,0.054,73.0,-54.44,0
2003632.0,-0.157,-0.426,-0.114,-65.59,125.94,0
2003637.0,0.109,0.316,-0.066,68.04,-121.05,0
2003642.0,-0.264,-0.24,-0.25,-33.36,133.4,0
2003647.0,0.088,0.438,0.152,68.16,-29.91,0
2003652.0,-0.303,-0.469,-0.205,-52.11,124.05,0
2003657.0,0.097,0.404,-0.015,76.33,-99.01,0
2003662.0,-0.286,-0.422,-0.114,-53.87,111.66,0
2003667.0,0.116,0.357,0.09,67.6,-52.28,0
2003672.0,-0.07,-0.381,-0.298,-51.21,166.69,0
2003677.0,0.107,0.471,0.023,76.97,-77.89,0
2003682.0,-0.054,-0.278,-0.157,-59.21,161.08,0
2003687.0,0.174,0.318,0.021,61.2,-83.27,0
2003692.0,-0.018,-0.541,-0.118,-77.53,171.45,0
2003697.0,0.042,0.359,0.042,80.59,-45.0,0
2003702.0,-0.269,-0.292,-0.205,-40.84,127.23,0
2003707.0,0.016,0.462,0.442,46.25,-2.04,0
2003712.0,-0.157,-0.388,0.265,-51.59,30.62,0
2003717.0,-0.049,0.258,-0.2,51.49,166.24,0
2003722.0,-0.147,-0.311,-0.439,-33.92,161.48,0
2003727.0,0.011,0.352,0.241,55.58,-2.6,0
2003732.0,0.157,-0.364,0.037,-66.1,-76.64,0
2003737.0,-0.006,0.223,-0.542,22.31,179.38,0
2003742.0,0.011,-0.309,-0.506,-31.4,-178.76,0
2003747.0,0.14,0.436,0.291,53.44,-25.72,0
2003752.0,-0.09,-0.431,0.102,-72.53,41.33,0
2003757.0,0.042,0.345,-0.082,74.97,-152.97,0
2003762.0,-0.157,-0.374,-0.092,-64.07,120.43,0
2003767.0,0.018,0.471,0.281,59.11,-3.68,0
2003772.0,-0.051,-0.326,0.011,-80.85,77.97,0
2003777.0,-0.023,0.278,0.095,70.67,13.41,0
2003782.0,0.066,-0.295,-0.085,-69.96,-142.12,0
2003787.0,-0.066,0.302,0.023,77.01,70.78,0
2003792.0,0.145,-0.261,0.08,-57.59,-61.0,0
2003797.0,0.064,0.227,0.253,41.09,-14.13,0
2003802.0,0.071,-0.378,-0.176,-63.4,-158.07,0
2003807.0,0.023,0.342,-0.202,59.27,-173.54,0
2003812.0,0.119,-0.201,0.032,-58.56,-74.69,0
2003817.0,0.035,0.27,0.301,41.78,-6.62,0
2003822.0,-0.018,-0.362,-0.08,-77.23,167.47,0
2003827.0,-0.094,0.27,0.011,70.63,83.39,0
2003832.0,-0.003,-0.22,0.025,-83.39,7.72,0
2003837.0,-0.106,0.258,0.1,60.59,46.91,0
2003842.0,0.14,-0.275,-0.013,-62.93,-95.3,0
2003847.0,-0.051,0.208,0.068,67.67,36.88,0
2003852.0,0.195,-0.275,-0.106,-51.09,-118.58,0
2003857.0,-0.09,0.237,-0.063,65.15,125.23,0
2003862.0,0.08,-0.17,0.109,-51.47,-36.38,0
2003867.0,-0.058,0.246,0.179,52.68,18.14,0
2003872.0,0.109,-0.199,0.061,-57.83,-60.7,0
2003877.0,-0.102,0.091,0.021,41.23,78.59,0
2003882.0,0.15,-0.187,0.001,-51.29,-89.48,0
2003887.0,-0.001,0.179,0.109,58.7,0.54,0
2003892.0,0.109,-0.132,0.04,-48.64,-70.02,0
2003897.0,-0.116,0.079,-0.106,26.61,132.53,0
2003902.0,0.198,-0.086,-0.085,-21.87,-113.23,0
2003907.0,-0.185,0.024,0.004,7.31,88.84,0
2003912.0,0.131,0.019,0.078,7.12,-59.17,0
2003917.0,-0.248,0.002,0.162,0.43,56.85,0
2003922.0,0.258,-0.134,0.071,-26.68,-74.63,0
2003927.0,-0.183,0.098,-0.205,19.65,138.18,0
2003932.0,0.234,-0.055,-0.02,-13.25,-94.94,0
2003937.0,-0.039,0.191,0.325,30.34,6.91,0
2003942.0,0.363,-0.266,0.104,-35.16,-73.96,0
2003947.0,-0.092,0.088,-0.212,20.96,156.51,0
2003952.0,0.205,-0.074,-0.068,-19.01,-108.38,0
2003957.0,-0.2,0.103,0.164,21.68,50.59,0
2003962.0,0.174,-0.038,0.071,-11.59,-67.83,0
2003967.0,-0.315,-0.058,0.068,-10.14,77.74,0
2003972.0,0.25,0.108,0.138,20.63,-61.17,0
2003977.0,-0.279,-0.132,-0.07,-24.63,104.19,0
2003982.0,0.293,0.002,0.121,0.4,-67.58,0
2003987.0,-0.224,-0.11,-0.003,-26.24,90.88,0
2003992.0,0.351,0.148,0.042,22.76,-83.17,0
2003997.0,0.047,-0.297,-0.298,-44.57,-171.06,0
2004002.0,0.483,-0.019,-0.152,-2.19,-107.47,0
2004007.0,-0.41,-0.117,-0.085,-15.66,101.68,0
2004012.0,0.432,0.086,-0.351,8.79,-129.04,0
2004017.0,-0.312,-0.0,0.31,-0.02,45.19,0
2004022.0,0.454,0.014,0.466,1.25,-44.25,0
2004027.0,-0.288,-0.175,0.052,-30.85,79.85,0
2004032.0,0.372,0.208,0.159,27.19,-66.83,0
2004037.0,-0.149,-0.194,0.049,-50.96,71.77,0
2004042.0,0.351,0.148,0.023,22.86,-86.27,0
2004047.0,-0.164,-0.259,-0.109,-52.76,123.58,0
2004052.0,0.408,-0.378,-0.082,-42.25,-101.41,0
2004057.0,-0.169,-0.144,0.119,-34.89,54.86,0
2004062.0,0.212,0.148,0.001,34.96,-89.63,0
2004067.0,-0.305,-0.196,-0.011,-32.77,91.99,0
2004072.0,0.411,0.306,0.449,26.72,-42.45,0
2004077.0,-0.298,-0.237,0.111,-36.71,69.48,0
2004082.0,0.375,0.215,-0.042,29.72,-96.35,0
2004087.0,-0.188,-0.244,-0.087,-49.72,114.92,0
2004092.0,-0.267,-0.345,-0.274,-42.05,135.76,0
2004097.0,-0.2,-0.307,-0.035,-56.53,99.81,0
2004102.0,0.423,0.201,0.083,25.01,-78.92,0
2004107.0,-0.219,-0.297,0.059,-52.65,74.96,0
2004112.0,0.315,0.354,0.162,45.01,-62.82,0
2004117.0,-0.36,-0.235,0.121,-31.71,71.42,0
2004122.0,0.281,0.179,-0.135,29.88,-115.64,0
2004127.0,-0.226,-0.275,0.001,-50.62,89.66,0
2004132.0,-0.339,-0.299,-0.418,-29.11,140.96,0
2004137.0,-0.159,-0.242,-0.051,-55.37,107.88,0
2004142.0,0.454,0.328,-0.217,33.1,-115.5,0
2004147.0,-0.164,-0.259,-0.037,-57.01,102.71,0
2004152.0,0.607,0.347,-0.482,24.11,-128.46,0
2004157.0,-0.219,0.306,-0.03,54.2,97.74,0
2004162.0,0.475,-0.232,-0.164,-24.8,-109.02,0
2004167.0,-0.267,0.27,0.001,45.38,89.71,0
2004172.0,-0.248,-0.414,-0.413,-40.72,149.04,0
2004177.0,-0.312,0.366,0.064,48.96,78.49,0
2004182.0,0.37,-0.345,-0.066,-42.54,-100.06,0
2004187.0,-0.439,0.39,0.114,40.69,75.46,0
2004192.0,0.396,-0.462,-0.195,-46.3,-116.19,0
2004197.0,-0.334,0.483,0.155,52.73,65.15,0
2004202.0,-0.202,-0.395,-0.233,-52.01,139.09,0
2004207.0,0.162,0.383,0.013,67.03,-85.29,0
2004212.0,-0.102,-0.498,-0.298,-57.71,161.17,0
2004217.0,0.1,0.438,0.097,72.39,-45.7,0
2004222.0,-0.183,-0.292,-0.082,-55.52,114.25,0
2004227.0,0.076,0.414,0.052,77.53,-55.66,0
2004232.0,-0.154,-0.419,-0.145,-63.22,133.17,0
2004237.0,0.004,0.304,0.107,70.64,-2.01,0
2004242.0,-0.212,-0.196,-0.269,-29.84,141.81,0
2004247.0,0.08,0.402,-0.013,78.55,-99.19,0
2004252.0,-0.164,-0.393,-0.169,-59.1,135.83,0
2004257.0,0.035,0.136,0.023,72.98,-56.71,0
2004262.0,-0.159,-0.374,-0.226,-53.51,144.87,0
2004267.0,-0.011,0.495,-0.018,87.6,149.19,0
2004272.0,-0.154,-0.345,-0.279,-47.27,151.04,0
2004277.0,0.076,0.349,0.111,68.92,-34.13,0
2004282.0,-0.149,-0.513,-0.154,-67.26,135.9,0
2004287.0,-0.111,0.457,-0.092,72.48,129.62,0
2004292.0,-0.207,-0.357,-0.202,-50.97,134.33,0
2004297.0,0.023,0.45,0.123,74.41,-10.51,0
2004302.0,-0.063,-0.443,-0.121,-72.9,152.34,0
2004307.0,0.054,0.44,-0.001,83.0,-91.1,0
2004312.0,0.116,-0.311,-0.078,-65.82,-123.74,0
2004317.0,0.111,0.381,0.107,67.92,-46.26,0
2004322.0,-0.123,-0.429,-0.178,-63.19,145.36,0
2004327.0,0.056,0.311,-0.13,65.46,-156.59,0
2004332.0,-0.221,-0.321,-0.027,-55.21,97.05,0
2004337.0,-0.035,0.421,0.334,51.43,5.9,0
2004342.0,-0.082,-0.319,-0.099,-67.96,140.27,0
2004347.0,-0.063,0.239,-0.171,52.69,159.69,0
2004352.0,0.085,-0.287,-0.032,-72.43,-110.69,0
2004357.0,0.119,0.335,0.353,41.95,-18.57,0
2004362.0,0.145,-0.252,-0.07,-57.34,-115.92,0
2004367.0,-0.003,0.199,-0.403,26.21,179.51,0
2004372.0,-0.013,-0.232,-0.133,-60.15,174.4,0
2004377.0,0.068,0.349,0.502,34.6,-7.76,0
2004382.0,0.018,-0.208,0.116,-60.55,-8.86,0
2004387.0,-0.157,0.172,-0.331,25.16,154.7,0
2004392.0,-0.015,-0.304,-0.13,-66.67,173.26,0
2004397.0,-0.035,0.191,0.449,23.02,4.4,0
2004402.0,0.241,-0.187,0.09,-36.02,-69.52,0
2004407.0,-0.054,0.242,-0.233,45.27,167.03,0
2004412.0,0.188,-0.242,-0.035,-51.68,-100.41,0
2004417.0,0.049,0.223,0.255,40.57,-10.92,0
2004422.0,0.126,-0.283,-0.133,-57.1,-136.52,0
2004427.0,-0.188,0.23,-0.193,40.49,135.72,0
2004432.0,0.147,-0.287,0.176,-51.38,-39.93,0
2004437.0,-0.147,0.199,0.104,47.76,54.66,0
2004442.0,-0.106,-0.12,-0.126,-36.07,139.72,0
2004447.0,-0.202,0.172,0.004,40.42,88.94,0
2004452.0,0.107,-0.285,-0.054,-67.26,-116.72,0
2004457.0,-0.08,0.122,0.018,56.06,77.25,0
2004462.0,0.143,-0.161,-0.044,-47.09,-107.2,0
2004467.0,0.025,0.218,-0.051,75.28,-153.76,0
2004472.0,0.36,-0.12,0.013,-18.38,-87.88,0
2004477.0,0.001,-0.007,0.164,-2.56,-0.47,0
2004482.0,0.224,-0.0,0.186,-0.03,-50.34,0
2004487.0,-0.114,0.079,0.068,30.74,58.94,0
2004492.0,0.188,0.017,0.152,3.92,-51.02,0
2004497.0,-0.272,-0.106,0.119,-19.59,66.4,0
2004502.0,0.123,-0.062,0.164,-16.9,-36.95,0
2004507.0,-0.099,0.088,0.133,28.05,36.71,0
2004512.0,0.296,0.057,0.016,10.95,-86.96,0
2004517.0,-0.157,-0.012,-0.133,-3.38,130.27,0
2004522.0,0.358,-0.168,-0.063,-24.76,-100.02,0
2004527.0,-0.085,0.062,0.121,22.78,35.02,0
2004532.0,0.25,0.117,0.143,22.13,-60.33,0
2004537.0,-0.217,-0.048,-0.2,-9.26,132.69,0
2004542.0,0.226,-0.129,-0.044,-29.3,-101.03,0
2004547.0,-0.135,0.038,0.296,6.69,24.55,0
2004552.0,0.279,0.218,0.138,34.97,-63.72,0
2004557.0,-0.298,-0.082,-0.322,-10.53,137.21,0
2004562.0,0.329,-0.141,0.15,-21.35,-65.54,0
2004567.0,-0.262,-0.141,0.341,-18.19,37.51,0
2004572.0,0.226,0.278,0.104,48.07,-65.26,0
2004577.0,-0.305,-0.036,-0.133,-6.19,113.51,0
2004582.0,0.423,0.026,0.313,2.85,-53.52,0
2004587.0,-0.161,-0.211,0.076,-49.79,64.92,0
2004592.0,0.478,0.098,-0.087,11.41,-100.35,0
2004597.0,-0.102,-0.06,-0.154,-18.0,146.63,0
2004602.0,0.32,0.088,0.133,14.32,-67.41,0
2004607.0,-0.252,-0.117,-0.047,-24.59,100.44,0
2004612.0,0.207,0.093,-0.327,13.55,-147.61,0
2004617.0,-0.394,0.002,0.284,0.26,54.21,0
2004622.0,0.406,0.148,0.416,14.32,-44.33,0
2004627.0,-0.331,-0.218,-0.032,-33.22,95.54,0
2004632.0,0.277,0.361,0.21,46.15,-52.85,0
2004637.0,-0.252,-0.299,0.052,-49.29,78.44,0
2004642.0,0.375,0.282,-0.228,32.75,-121.36,0
2004647.0,-0.219,-0.359,-0.214,-49.56,134.37,0
2004652.0,0.55,-0.393,0.231,-33.38,-67.19,0
2004657.0,-0.269,-0.199,0.049,-36.01,79.63,0
2004662.0,0.305,0.127,-0.556,11.29,-151.24,0
2004667.0,-0.365,-0.206,-0.056,-29.16,98.74,0
2004672.0,0.42,0.302,0.765,19.05,-28.78,0
2004677.0,-0.37,-0.237,0.102,-31.73,74.59,0
2004682.0,0.25,0.132,-0.336,17.42,-143.33,0
2004687.0,-0.3,-0.252,-0.19,-35.29,122.35,0
2004692.0,-0.152,-0.333,0.068,-63.42,65.76,0
2004697.0,-0.252,-0.278,0.131,-44.35,62.64,0
2004702.0,0.495,0.263,0.078,27.73,-81.04,0
2004707.0,-0.305,-0.335,-0.14,-44.97,114.63,0
2004712.0,0.55,0.392,-0.231,33.36,-112.79,0
2004717.0,-0.221,-0.453,0.021,-63.85,84.71,0
2004722.0,0.461,0.345,-0.262,33.02,-119.61,0
2004727.0,-0.413,-0.426,-0.058,-45.64,98.07,0
2004732.0,-0.394,-0.491,-0.243,-46.71,121.67,0
2004737.0,-0.315,-0.273,0.092,-39.79,73.65,0
2004742.0,0.351,0.273,-0.343,29.06,-134.38,0
2004747.0,-0.322,-0.479,0.006,-56.1,88.91,0
2004752.0,0.514,0.443,-0.023,40.73,-92.52,0
2004757.0,-0.353,0.354,0.164,42.3,65.06,0
2004762.0,0.375,-0.467,-0.384,-41.03,-135.7,0
2004767.0,-0.284,0.388,0.044,53.49,81.09,0
2004772.0,-0.219,-0.242,-0.013,-47.81,93.4,0
2004777.0,-0.336,0.39,0.061,48.78,79.68,0
2004782.0,0.329,-0.352,-0.264,-39.82,-128.76,0
2004787.0,-0.432,0.304,0.123,34.07,74.05,0
2004792.0,0.497,-0.295,-0.087,-30.28,-99.96,0
2004797.0,0.159,0.471,0.076,69.49,-64.63,0
2004802.0,-0.058,-0.362,-0.233,-56.38,165.92,0
2004807.0,0.21,0.309,0.068,54.46,-71.93,0
2004812.0,-0.109,-0.378,-0.245,-54.67,156.08,0
2004817.0,0.131,0.325,-0.013,68.03,-95.69,0
2004822.0,-0.142,-0.175,-0.118,-43.39,129.75,0
2004827.0,-0.025,0.33,0.073,76.82,18.85,0
2004832.0,-0.226,-0.386,-0.133,-55.79,120.41,0
2004837.0,-0.099,0.28,0.183,53.33,28.42,0
2004842.0,-0.214,-0.182,-0.066,-39.12,107.05,0
2004847.0,-0.082,0.419,0.021,78.53,76.03,0
2004852.0,-0.056,-0.422,-0.173,-66.62,162.07,0
2004857.0,0.133,0.321,0.03,66.96,-77.26,0
2004862.0,0.04,-0.369,-0.372,-44.59,-173.92,0
2004867.0,0.052,0.462,-0.231,62.88,-167.39,0
2004872.0,-0.015,-0.369,-0.169,-65.34,174.78,0
2004877.0,0.147,0.223,0.26,36.67,-29.56,0
2004882.0,-0.176,-0.359,-0.099,-60.67,119.43,0
2004887.0,-0.035,0.369,-0.063,78.93,151.36,0
2004892.0,-0.09,-0.22,-0.094,-59.44,136.49,0
2004897.0,-0.008,0.191,0.243,38.19,1.94,0
2004902.0,-0.013,-0.381,-0.178,-64.86,175.83,0
2004907.0,-0.078,0.369,-0.111,69.8,145.07,0
2004912.0,-0.054,-0.335,-0.049,-77.78,132.33,0
2004917.0,-0.027,0.321,0.123,68.48,12.5,0
2004922.0,-0.097,-0.371,-0.102,-69.29,136.38,0
2004927.0,0.011,0.4,0.03,85.42,-19.97,0
2004932.0,0.133,-0.376,-0.032,-70.0,-103.59,0
2004937.0,0.047,0.364,0.135,68.5,-19.08,0
2004942.0,0.006,-0.378,-0.197,-62.45,-178.22,0
2004947.0,-0.042,0.337,0.016,82.47,69.36,0
2004952.0,0.157,-0.273,0.128,-53.42,-50.75,0
2004957.0,-0.042,0.261,0.238,47.14,9.93,0
2004962.0,-0.011,-0.359,-0.224,-58.06,177.28,0
2004967.0,-0.039,0.27,-0.075,72.56,152.4,0
2004972.0,0.073,-0.094,0.332,-15.39,-12.44,0
2004977.0,0.049,0.12,0.351,18.64,-7.99,0
2004982.0,0.207,-0.328,-0.336,-39.72,-148.35,0
2004987.0,-0.023,0.211,-0.336,31.99,176.16,0
2004992.0,0.181,-0.026,0.265,-4.72,-34.35,0
2004997.0,-0.09,0.218,0.262,38.14,18.86,0
2005002.0,0.009,-0.357,-0.228,-57.35,-177.86,0
2005007.0,-0.173,0.132,-0.068,35.22,111.43,0
2005012.0,0.109,-0.125,0.317,-20.38,-18.97,0
2005017.0,-0.169,0.251,0.123,50.24,53.79,0
2005022.0,0.109,-0.211,-0.126,-51.73,-139.01,0
2005027.0,-0.068,0.141,0.066,56.1,45.89,0
2005032.0,0.236,-0.122,0.078,-26.19,-71.72,0
2005037.0,-0.07,0.117,-0.087,46.25,141.07,0
2005042.0,0.167,-0.187,-0.19,-36.48,-138.79,0
2005047.0,-0.138,0.191,0.085,49.8,58.23,0
2005052.0,0.155,-0.139,0.114,-35.91,-53.62,0
2005057.0,-0.24,0.12,-0.078,25.32,107.9,0
2005062.0,0.135,-0.216,-0.02,-57.58,-98.48,0
2005067.0,-0.13,0.132,0.162,32.34,38.86,0
2005072.0,0.238,-0.024,0.121,-5.15,-63.08,0
2005077.0,-0.133,0.076,0.028,29.42,78.21,0
2005082.0,0.286,-0.089,-0.032,-17.12,-96.41,0
2005087.0,-0.061,0.036,0.028,28.12,65.55,0
2005092.0,0.327,-0.053,0.162,-8.24,-63.68,0
2005097.0,-0.118,-0.003,0.145,-0.78,39.22,0
2005102.0,0.246,-0.007,0.171,-1.4,-55.09,0
2005107.0,-0.109,0.048,0.097,18.12,48.24,0
2005112.0,0.341,-0.007,0.085,-1.2,-75.99,0
2005117.0,-0.214,-0.079,0.001,-20.29,89.64,0
2005122.0,0.265,0.053,-0.023,11.18,-94.88,0
2005127.0,-0.142,-0.022,-0.013,-8.64,95.22,0
2005132.0,0.293,0.05,0.174,8.36,-59.37,0
2005137.0,-0.121,-0.192,0.174,-42.18,34.8,0
2005142.0,0.238,0.12,0.09,25.14,-69.33,0
2005147.0,-0.152,-0.048,-0.001,-17.55,90.39,0
2005152.0,0.322,0.172,0.205,24.28,-57.55,0
2005157.0,-0.243,-0.18,0.011,-36.48,87.42,0
2005162.0,0.344,-0.024,0.064,-3.94,-79.52,0
2005167.0,-0.166,-0.106,0.011,-32.35,86.24,0
2005172.0,0.289,0.383,0.123,50.65,-66.84,0
2005177.0,-0.279,-0.182,-0.039,-32.9,98.03,0
2005182.0,0.289,0.026,0.123,4.77,-66.84,0
2005187.0,-0.224,-0.256,0.001,-48.89,89.65,0
2005192.0,0.408,0.225,0.147,27.38,-70.15,0
2005197.0,-0.169,-0.165,0.049,-43.27,73.72,0
2005202.0,0.394,0.167,0.121,22.11,-72.92,0
2005207.0,-0.147,-0.252,0.085,-55.96,59.93,0
2005212.0,0.351,0.275,-0.221,33.56,-122.24,0
2005217.0,-0.329,-0.208,-0.054,-32.02,99.27,0
2005222.0,0.384,0.091,0.073,13.07,-79.22,0
2005227.0,-0.346,-0.323,0.035,-42.94,84.24,0
2005232.0,0.329,0.318,0.164,40.85,-63.51,0
2005237.0,-0.135,-0.149,0.032,-46.92,76.48,0
2005242.0,0.344,0.23,0.195,30.16,-60.4,0
2005247.0,-0.248,-0.331,-0.035,-52.9,97.94,0
2005252.0,0.466,-0.328,-0.19,-33.11,-112.21,0
2005257.0,-0.343,-0.275,0.076,-38.08,77.59,0
2005262.0,0.363,0.27,0.145,34.68,-68.22,0
2005267.0,-0.339,-0.338,0.111,-43.45,71.78,0
2005272.0,0.444,0.258,0.128,29.2,-73.9,0
2005277.0,-0.391,-0.266,-0.37,-26.29,133.38,0
2005282.0,0.432,0.256,0.001,30.63,-89.82,0
2005287.0,-0.274,-0.335,0.123,-48.14,65.74,0
2005292.0,-0.25,-0.357,-0.264,-44.44,136.6,0
2005297.0,-0.274,-0.304,-0.142,-44.58,117.45,0
2005302.0,0.317,0.282,0.064,41.1,-78.67,0
2005307.0,-0.358,-0.35,0.109,-43.08,73.04,0
2005312.0,0.408,0.409,-0.02,45.03,-92.83,0
2005317.0,-0.387,-0.273,0.135,-33.7,70.69,0
2005322.0,0.36,0.278,-0.336,29.38,-133.01,0
2005327.0,-0.329,-0.431,-0.08,-51.85,103.67,0
2005332.0,-0.135,-0.34,-0.133,-60.89,134.49,0
2005337.0,-0.353,-0.213,0.243,-26.45,55.44,0
2005342.0,0.404,0.328,-0.09,38.42,-102.52,0
2005347.0,-0.37,-0.369,-0.183,-41.8,116.33,0
2005352.0,0.435,-0.434,-0.398,-36.32,-132.51,0
2005357.0,-0.286,0.476,0.224,52.67,51.92,0
2005362.0,0.473,-0.225,-0.001,-25.46,-90.13,0
2005367.0,-0.365,0.335,-0.087,41.76,103.44,0
2005372.0,-0.128,-0.467,-0.245,-59.36,152.45,0
2005377.0,-0.434,0.333,0.064,37.15,81.67,0
2005382.0,0.392,-0.28,-0.073,-35.13,-100.54,0
2005387.0,-0.372,0.397,0.059,46.52,81.02,0
2005392.0,0.444,-0.352,-0.075,-38.0,-99.61,0
2005397.0,0.114,0.311,0.03,69.26,-75.2,0
2005402.0,-0.049,-0.29,-0.353,-39.12,172.11,0
2005407.0,0.04,0.357,0.001,83.65,-88.04,0
2005412.0,-0.049,-0.271,0.097,-68.11,26.73,0
2005417.0,0.08,0.285,0.013,74.03,-80.58,0
2005422.0,-0.178,-0.321,-0.408,-35.79,156.41,0
2005427.0,-0.078,0.39,-0.044,77.1,119.61,0
2005432.0,-0.106,-0.244,0.157,-52.19,34.12,0
2005437.0,0.023,0.352,0.25,54.45,-5.23,0
2005442.0,-0.056,-0.338,-0.123,-68.17,155.51,0
2005447.0,0.016,0.263,-0.042,80.38,-159.36,0
2005452.0,-0.027,-0.338,-0.126,-69.17,167.7,0
2005457.0,0.123,0.381,0.195,58.74,-32.3,0
2005462.0,-0.023,-0.359,-0.114,-72.14,168.75,0
2005467.0,-0.039,0.335,-0.085,74.4,155.12,0
2005472.0,-0.027,-0.333,-0.2,-58.8,172.2,0
2005477.0,-0.032,0.328,0.111,70.51,16.09,0
2005482.0,0.016,-0.194,-0.058,-72.67,-164.96,0
2005487.0,-0.087,0.213,0.059,63.71,56.01,0
2005492.0,0.073,-0.285,-0.171,-56.87,-156.83,0
2005497.0,0.028,0.194,0.078,66.88,-19.55,0
2005502.0,-0.104,-0.235,-0.109,-57.34,136.29,0
2005507.0,-0.097,0.349,-0.049,72.75,116.81,0
2005512.0,-0.003,-0.228,-0.138,-58.85,178.57,0
2005517.0,-0.082,0.16,0.023,61.9,74.47,0
2005522.0,0.001,-0.297,-0.157,-62.19,-179.5,0
2005527.0,-0.018,0.306,0.028,83.87,32.73,0
2005532.0,0.19,-0.232,0.076,-48.59,-68.36,0
2005537.0,-0.008,0.232,0.119,62.86,3.96,0
2005542.0,0.035,-0.412,-0.128,-72.16,-164.75,0
2005547.0,-0.109,0.395,0.001,74.6,89.29,0
2005552.0,0.054,-0.146,0.042,-64.91,-52.1,0
2005557.0,-0.099,0.218,0.052,62.81,62.5,0
2005562.0,0.088,-0.412,-0.138,-68.41,-147.52,0
2005567.0,-0.032,0.294,-0.061,76.83,152.16,0
2005572.0,0.193,-0.137,-0.039,-34.76,-101.53,0
2005577.0,-0.027,0.232,0.023,81.26,50.08,0
2005582.0,0.107,-0.314,-0.047,-69.65,-113.56,0
2005587.0,-0.09,0.179,0.19,40.44,25.2,0
2005592.0,0.207,-0.031,0.308,-4.82,-33.95,0
2005597.0,-0.104,0.098,0.04,41.37,69.12,0
2005602.0,0.109,-0.163,-0.097,-48.17,-131.58,0
2005607.0,-0.058,0.072,0.107,30.5,28.73,0
2005612.0,0.169,0.105,0.121,26.84,-54.38,0
2005617.0,-0.157,0.055,-0.044,18.64,105.73,0
2005622.0,0.224,-0.163,-0.032,-35.76,-98.17,0
2005627.0,-0.133,0.057,0.147,16.11,42.0,0
2005632.0,0.262,-0.06,0.116,-11.81,-66.09,0
2005637.0,-0.063,0.029,0.133,10.98,25.44,0
2005642.0,0.281,-0.053,0.03,-10.57,-83.9,0
2005647.0,-0.111,0.031,-0.111,11.14,135.0,0
2005652.0,0.428,0.026,0.025,3.5,-86.61,0
2005657.0,-0.092,-0.127,0.025,-53.09,74.63,0
2005662.0,0.1,0.05,0.028,25.88,-74.45,0
2005667.0,-0.133,-0.046,0.116,-14.5,48.78,0
2005672.0,0.267,0.134,0.329,17.53,-39.04,0
2005677.0,-0.348,-0.115,0.1,-17.63,74.05,0
2005682.0,0.162,0.067,0.044,21.73,-74.64,0
2005687.0,-0.161,-0.005,0.03,-1.73,79.44,0
2005692.0,0.406,0.093,0.152,12.13,-69.45,0
2005697.0,-0.135,-0.182,-0.035,-52.56,104.35,0
2005702.0,0.387,0.108,0.021,15.52,-86.96,0
2005707.0,-0.13,-0.113,-0.142,-30.28,137.51,0
2005712.0,0.337,0.074,0.083,12.06,-76.18,0
2005717.0,-0.341,-0.113,0.15,-16.83,66.29,0
2005722.0,0.207,0.139,0.195,25.97,-46.7,0
2005727.0,-0.377,-0.034,-0.027,-5.09,94.15,0
2005732.0,0.308,0.218,0.222,29.86,-54.25,0
2005737.0,-0.355,-0.194,0.095,-27.82,75.07,0
2005742.0,0.274,0.148,0.037,28.18,-82.26,0
2005747.0,-0.217,-0.204,-0.2,-34.66,132.69,0
2005752.0,0.471,0.223,0.205,23.44,-66.48,0
2005757.0,-0.26,-0.273,0.116,-43.83,65.87,0
2005762.0,0.399,0.136,-0.044,18.76,-96.32,0
2005767.0,-0.188,-0.165,-0.157,-34.07,129.84,0
2005772.0,0.401,0.304,0.253,32.66,-57.79,0
2005777.0,-0.343,-0.117,0.126,-17.81,69.87,0
2005782.0,0.31,0.098,-0.073,17.1,-103.22,0
2005787.0,-0.319,-0.326,-0.19,-41.23,120.77,0
2005792.0,0.401,0.347,0.32,34.07,-51.44,0
2005797.0,-0.331,-0.299,0.152,-39.39,65.34,0
2005802.0,0.399,0.268,0.135,32.47,-71.24,0
2005807.0,-0.293,-0.283,0.088,-42.74,73.37,0
2005812.0,0.504,0.347,-0.322,30.12,-122.56,0
2005817.0,-0.353,-0.297,0.083,-39.33,76.81,0
2005822.0,0.404,0.246,0.234,27.86,-59.94,0
2005827.0,-0.267,-0.335,0.016,-51.45,86.63,0
2005832.0,0.341,0.342,-0.056,44.69,-99.33,0
2005837.0,-0.353,-0.264,-0.243,-31.59,124.53,0
2005842.0,0.37,0.266,0.138,33.92,-69.57,0
2005847.0,-0.272,-0.333,-0.054,-50.26,101.19,0
2005852.0,0.492,-0.441,-0.394,-34.96,-128.66,0
2005857.0,-0.284,-0.357,0.011,-51.51,87.79,0
2005862.0,0.49,0.244,0.329,22.46,-56.08,0
2005867.0,-0.281,-0.355,-0.135,-48.65,115.67,0
2005872.0,0.248,0.311,-0.003,51.44,-90.79,0
2005877.0,-0.257,-0.185,0.14,-32.2,61.4,0
2005882.0,0.313,0.227,0.315,27.12,-44.78,0
2005887.0,-0.365,-0.266,-0.195,-32.73,118.11,0
2005892.0,-0.128,-0.271,-0.149,-53.99,139.44,0
2005897.0,-0.315,-0.357,0.023,-48.52,85.84,0
2005902.0,0.451,0.388,0.126,39.6,-74.42,0
2005907.0,-0.353,-0.467,0.076,-52.3,77.92,0
2005912.0,0.49,0.541,-0.001,47.84,-90.12,0
2005917.0,-0.348,-0.481,0.073,-53.53,78.13,0
2005922.0,0.394,0.376,-0.394,34.0,-134.98,0
2005927.0,-0.396,-0.515,0.018,-52.4,87.38,0
2005932.0,-0.104,-0.422,0.104,-70.74,44.91,0
2005937.0,-0.327,-0.204,0.272,-25.6,50.23,0
2005942.0,0.301,0.278,-0.123,40.51,-112.27,0
2005947.0,-0.439,-0.374,-0.047,-40.23,96.05,0
2005952.0,0.341,-0.386,-0.051,-48.17,-98.55,0
2005957.0,-0.456,0.335,0.279,32.08,58.53,0
2005962.0,0.401,-0.242,0.068,-30.73,-80.33,0
2005967.0,-0.482,0.302,-0.044,31.91,95.23,0
2005972.0,-0.09,-0.357,-0.365,-43.52,166.2,0
2005977.0,-0.41,0.376,0.179,40.01,66.49,0
2005982.0,0.461,-0.326,0.157,-33.78,-71.2,0
2005987.0,-0.315,0.28,-0.207,36.63,123.33,0
2005992.0,0.442,-0.414,-0.513,-31.45,-139.28,0
2005997.0,-0.051,0.359,0.202,59.81,14.22,0
2006002.0,0.044,-0.173,0.32,-28.12,-7.91,0
2006007.0,-0.073,0.256,-0.09,65.72,140.89,0
2006012.0,-0.049,-0.465,-0.518,-41.75,174.61,0
2006017.0,0.011,0.249,0.176,54.66,-3.55,0
2006022.0,-0.039,-0.23,0.236,-43.87,9.47,0
2006027.0,-0.114,0.366,0.116,66.06,44.32,0
2006032.0,0.03,-0.366,-0.219,-58.91,-172.17,0
2006037.0,-0.07,0.294,-0.013,76.32,100.46,0
2006042.0,0.068,-0.307,-0.152,-61.49,-155.76,0
2006047.0,0.047,0.352,-0.008,82.3,-99.95,0
2006052.0,0.066,-0.297,0.061,-73.14,-47.16,0
2006057.0,0.04,0.208,0.286,35.76,-7.89,0
2006062.0,0.011,-0.213,-0.03,-81.54,-159.83,0
2006067.0,-0.102,0.258,-0.087,62.61,130.65,0
2006072.0,0.116,-0.177,-0.001,-56.75,-90.51,0
2006077.0,-0.02,0.256,0.224,48.7,5.15,0
2006082.0,0.071,-0.264,-0.145,-58.56,-153.93,0
2006087.0,-0.092,0.325,-0.149,61.66,148.38,0
2006092.0,0.128,-0.17,-0.037,-51.89,-106.07,0
2006097.0,-0.063,0.124,0.068,53.15,42.78,0
2006102.0,-0.035,-0.29,-0.207,-54.1,170.52,0
2006107.0,-0.106,0.299,0.006,70.39,86.69,0
2006112.0,0.157,-0.182,0.119,-42.78,-52.91,0
2006117.0,-0.207,0.191,0.042,42.19,78.51,0
2006122.0,0.09,-0.398,-0.161,-65.07,-150.88,0
2006127.0,-0.157,0.246,0.09,53.76,60.14,0
2006132.0,0.111,-0.199,0.193,-41.75,-30.03,0
2006137.0,0.04,0.292,0.097,70.23,-22.21,0
2006142.0,0.066,-0.117,-0.087,-47.04,-142.89,0
2006147.0,0.078,0.069,0.076,32.54,-45.89,0
2006152.0,0.279,-0.235,0.085,-38.82,-73.03,0
2006157.0,-0.066,0.117,0.092,45.96,35.43,0
2006162.0,0.198,-0.062,0.052,-16.99,-75.36,0
2006167.0,-0.027,0.194,0.167,48.94,9.33,0
2006172.0,0.341,-0.201,0.111,-29.27,-71.91,0
2006177.0,-0.274,0.045,-0.087,8.96,107.66,0
2006182.0,0.171,0.019,-0.025,6.26,-98.29,0
2006187.0,-0.231,0.079,0.068,18.13,73.5,0
2006192.0,0.174,-0.058,0.085,-16.58,-63.89,0
2006197.0,-0.214,-0.079,0.085,-18.96,68.31,0
2006202.0,0.155,-0.043,0.102,-13.15,-56.6,0
2006207.0,-0.075,0.06,0.1,25.57,37.1,0
2006212.0,0.399,-0.094,0.083,-12.93,-78.28,0
2006217.0,-0.025,-0.06,-0.035,-54.61,144.14,0
2006222.0,0.284,0.017,0.083,3.21,-73.75,0
2006227.0,-0.2,0.103,0.126,23.53,57.79,0
2006232.0,0.241,0.062,0.145,12.46,-58.94,0
2006237.0,-0.437,-0.163,-0.087,-20.1,101.29,0
2006242.0,0.248,-0.041,0.028,-9.3,-83.63,0
2006247.0,-0.257,-0.022,0.128,-4.32,63.5,0
2006252.0,0.236,0.16,0.138,30.39,-59.71,0
2006257.0,-0.142,-0.206,-0.183,-41.63,142.13,0
2006262.0,0.31,0.033,0.044,6.08,-81.85,0
2006267.0,-0.166,0.043,0.102,12.42,58.49,0
2006272.0,0.435,0.179,0.159,21.18,-69.87,0
2006277.0,-0.176,-0.264,-0.056,-55.0,107.7,0
2006282.0,0.358,0.019,0.135,2.84,-69.28,0
2006287.0,-0.226,-0.11,0.198,-20.17,48.84,0
2006292.0,0.334,0.213,0.092,31.56,-74.55,0
2006297.0,-0.262,-0.24,-0.08,-41.17,106.99,0
2006302.0,0.27,0.098,0.14,17.88,-62.51,0
2006307.0,-0.284,-0.137,0.119,-23.96,67.29,0
2006312.0,0.36,0.263,0.15,33.99,-67.44,0
2006317.0,-0.286,-0.165,0.083,-29.05,73.86,0
2006322.0,0.406,0.136,0.238,16.15,-59.58,0
2006327.0,-0.233,-0.292,-0.188,-44.3,128.83,0
2006332.0,0.38,0.313,-0.015,39.52,-92.32,0
2006337.0,-0.161,-0.161,0.329,-23.64,26.11,0
2006342.0,0.384,0.112,0.284,13.23,-53.56,0
2006347.0,-0.358,-0.333,-0.348,-33.7,134.22,0
2006352.0,0.43,0.237,0.092,28.31,-77.88,0
2006357.0,-0.272,-0.079,0.325,-10.6,39.92,0
2006362.0,0.274,0.143,0.231,21.8,-49.87,0
2006367.0,-0.281,-0.261,-0.19,-37.57,124.08,0
2006372.0,0.423,0.249,0.15,29.02,-70.49,0
2006377.0,-0.348,-0.249,-0.025,-35.52,94.1,0
2006382.0,0.42,0.313,0.068,36.36,-80.76,0
2006387.0,-0.286,-0.474,-0.082,-57.89,106.08,0
2006392.0,0.473,0.455,0.262,40.05,-60.99,0
2006397.0,-0.243,-0.369,0.135,-52.99,60.85,0
2006402.0,0.38,0.357,0.167,40.7,-66.31,0
2006407.0,-0.257,-0.362,-0.205,-47.74,128.49,0
2006412.0,0.502,0.275,0.011,28.74,-88.75,0
2006417.0,-0.303,-0.326,0.001,-47.1,89.74,0
2006422.0,0.241,0.275,-0.056,48.06,-103.12,0
2006427.0,-0.348,-0.287,-0.044,-39.32,97.22,0
2006432.0,0.375,0.337,0.387,32.06,-44.1,0
2006437.0,-0.367,-0.261,-0.075,-34.85,101.58,0
2006442.0,0.399,0.201,0.032,26.67,-85.34,0
2006447.0,-0.26,-0.311,-0.164,-45.41,122.26,0
2006452.0,0.485,-0.359,-0.224,-33.93,-114.76,0
2006457.0,-0.348,-0.24,-0.14,-32.56,111.89,0
2006462.0,0.382,0.23,0.231,27.22,-58.82,0
2006467.0,-0.36,-0.496,0.018,-53.97,87.12,0
2006472.0,0.418,0.414,0.183,42.21,-66.32,0
2006477.0,-0.406,-0.196,-0.14,-24.6,109.03,0
2006482.0,0.404,0.306,0.289,31.69,-54.43,0
2006487.0,-0.262,-0.441,0.071,-58.37,74.88,0
2006492.0,-0.171,-0.287,-0.379,-34.64,155.73,0
2006497.0,-0.207,-0.259,-0.178,-43.45,130.73,0
2006502.0,0.42,0.328,0.32,31.83,-52.74,0
2006507.0,-0.315,-0.448,-0.19,-50.62,121.15,0
2006512.0,0.519,0.352,-0.334,29.7,-122.77,0
2006517.0,-0.286,-0.287,0.265,-36.42,47.21,0
2006522.0,0.444,0.385,-0.061,40.67,-97.8,0
2006527.0,-0.513,-0.467,-0.068,-42.04,97.55,0
2006532.0,-0.109,-0.426,-0.018,-75.5,99.29,0
2006537.0,-0.451,-0.204,0.301,-20.59,56.32,0
2006542.0,0.351,0.294,-0.183,36.64,-117.54,0
2006547.0,-0.334,-0.445,-0.195,-49.05,120.29,0
2006552.0,0.478,-0.23,-0.066,-25.5,-97.83,0
2006557.0,-0.339,0.316,0.157,40.24,65.13,0
2006562.0,0.353,-0.448,-0.195,-47.98,-118.89,0
2006567.0,-0.403,0.309,0.044,37.27,83.71,0
2006572.0,-0.037,-0.268,0.085,-70.92,23.46,0
2006577.0,-0.449,0.273,0.001,31.29,89.83,0
2006582.0,0.363,-0.278,-0.171,-34.71,-115.23,0
2006587.0,-0.413,0.278,0.064,33.6,81.24,0
2006592.0,0.413,-0.237,-0.044,-29.72,-96.1,0
2006597.0,0.054,0.273,-0.011,78.59,-101.12,0
2006602.0,0.317,-0.237,-0.279,-29.31,-131.29,0
2006607.0,0.023,0.246,-0.075,72.3,-163.07,0
2006612.0,-0.097,-0.28,-0.291,-42.45,161.58,0
2006617.0,-0.066,0.199,-0.094,59.92,145.17,0
2006622.0,-0.102,-0.311,-0.025,-71.43,103.81,0
2006627.0,-0.159,0.361,0.102,62.4,57.35,0
2006632.0,0.052,-0.165,0.04,-68.51,-52.47,0
2006637.0,-0.066,0.136,0.068,55.18,43.84,0
2006642.0,0.188,-0.316,-0.051,-58.34,-105.26,0
2006647.0,-0.078,0.203,-0.039,66.82,116.87,0
2006652.0,0.169,-0.117,0.1,-30.93,-59.5,0
2006657.0,-0.035,0.215,0.061,71.92,29.45,0
2006662.0,0.064,-0.252,-0.205,-49.58,-162.73,0
2006667.0,-0.099,0.184,0.131,48.31,37.21,0
2006672.0,0.085,-0.206,0.214,-41.77,-21.66,0
2006677.0,-0.147,0.194,0.056,50.89,69.01,0
2006682.0,0.066,-0.18,-0.185,-42.4,-160.4,0
2006687.0,-0.066,0.093,0.025,52.94,68.93,0
2006692.0,0.147,-0.194,0.068,-50.06,-65.11,0
2006697.0,-0.063,0.088,-0.044,48.89,124.89,0
2006702.0,0.19,-0.043,0.028,-12.66,-81.73,0
2006707.0,-0.13,0.026,0.088,9.47,56.11,0
2006712.0,0.107,-0.125,-0.08,-43.06,-126.88,0
2006717.0,-0.09,0.153,0.109,47.31,39.4,0
2006722.0,0.195,-0.082,0.145,-18.54,-53.4,0
2006727.0,-0.13,0.187,-0.035,54.15,104.85,0
2006732.0,0.205,-0.242,0.023,-49.57,-83.62,0
2006737.0,-0.181,0.05,0.155,11.91,49.44,0
2006742.0,0.181,0.017,0.076,4.84,-67.33,0
2006747.0,-0.219,0.105,-0.221,18.67,135.31,0
2006752.0,0.281,0.048,0.006,9.62,-88.75,0
2006757.0,-0.085,-0.173,0.157,-44.04,28.39,0
2006762.0,0.279,-0.031,0.109,-5.96,-68.65,0
2006767.0,-0.102,0.017,-0.133,5.67,142.57,0
2006772.0,0.238,0.038,0.111,8.25,-64.93,0
2006777.0,-0.145,-0.017,0.255,-3.3,29.56,0
2006782.0,0.155,-0.003,0.159,-0.66,-44.13,0
2006787.0,-0.262,-0.055,-0.09,-11.28,108.88,0
2006792.0,0.353,0.069,0.243,9.17,-55.46,0
2006797.0,-0.128,-0.089,0.193,-20.98,33.55,0
2006802.0,0.351,-0.077,-0.106,-11.83,-106.87,0
2006807.0,-0.056,-0.031,-0.272,-6.44,168.33,0
2006812.0,0.437,0.122,0.222,13.97,-63.11,0
2006817.0,-0.066,-0.137,0.145,-40.64,24.37,0
2006822.0,0.27,-0.031,0.071,-6.41,-75.28,0
2006827.0,-0.31,-0.067,0.018,-12.21,86.65,0
2006832.0,0.339,0.098,0.222,13.6,-56.82,0
2006837.0,-0.427,-0.053,0.037,-7.02,85.01,0
2006842.0,0.183,0.086,0.15,19.97,-50.75,0
2006847.0,-0.147,-0.122,0.126,-32.28,49.45,0
2006852.0,0.363,0.292,0.104,37.71,-73.96,0
2006857.0,-0.19,-0.156,-0.212,-28.7,138.07,0
2006862.0,0.418,-0.031,-0.094,-4.18,-102.73,0
2006867.0,-0.138,-0.23,0.009,-59.08,86.45,0
2006872.0,0.418,0.323,0.277,32.8,-56.49,0
2006877.0,-0.389,-0.153,0.028,-21.48,85.93,0
2006882.0,0.329,0.153,0.253,20.24,-52.5,0
2006887.0,-0.31,-0.278,0.076,-41.06,76.29,0
2006892.0,0.334,0.263,0.116,36.65,-70.81,0
2006897.0,-0.205,-0.206,-0.001,-45.21,90.29,0
2006902.0,0.408,0.196,0.205,23.24,-63.36,0
2006907.0,-0.066,-0.271,-0.042,-73.96,122.44,0
2006912.0,1.067,0.388,0.155,19.78,-81.75,0
2006917.0,-0.231,-0.321,0.102,-51.82,66.18,0
2006922.0,0.554,0.273,0.231,24.42,-67.36,0
2006927.0,-0.387,-0.419,0.021,-47.28,86.96,0
2006932.0,0.375,0.39,0.305,38.9,-50.83,0
2006937.0,-0.36,-0.213,0.116,-29.4,72.11,0
2006942.0,0.253,0.167,0.044,33.12,-80.03,0
2006947.0,-0.264,-0.364,-0.051,-53.51,100.98,0
2006952.0,0.483,0.385,0.303,34.07,-57.87,0
2006957.0,-0.236,-0.185,-0.011,-38.03,92.58,0
2006962.0,0.428,0.155,-0.118,19.31,-105.47,0
2006967.0,-0.348,-0.381,-0.183,-44.07,117.72,0
2006972.0,0.442,0.369,0.289,34.92,-56.85,0
2006977.0,-0.322,-0.146,-0.08,-23.79,103.97,0
2006982.0,0.284,0.132,-0.197,20.83,-124.81,0
2006987.0,-0.327,-0.359,-0.135,-45.47,112.47,0
2006992.0,0.382,0.254,0.317,27.05,-50.28,0
2006997.0,-0.422,-0.254,0.049,-30.84,83.35,0
2007002.0,0.368,0.325,0.128,39.89,-70.77,0
2007007.0,-0.415,-0.496,-0.001,-50.05,90.14,0
2007012.0,0.602,0.4,-0.181,32.44,-106.69,0
2007017.0,-0.382,-0.345,-0.03,-42.02,94.46,0
2007022.0,0.509,0.414,0.123,38.33,-76.36,0
2007027.0,-0.322,-0.46,-0.181,-51.25,119.3,0
2007032.0,0.545,0.357,0.14,32.37,-75.57,0
2007037.0,-0.336,-0.304,-0.118,-40.48,109.39,0
2007042.0,0.308,0.414,0.123,51.3,-68.15,0
2007047.0,-0.396,-0.436,-0.006,-47.74,90.84,0
2007052.0,0.377,-0.402,-0.087,-46.1,-103.02,0
2007057.0,-0.489,-0.307,-0.121,-31.31,103.86,0
2007062.0,0.289,0.337,0.071,48.63,-76.22,0
2007067.0,-0.298,-0.398,-0.054,-52.72,100.22,0
2007072.0,0.485,0.294,0.205,29.21,-67.1,0
2007077.0,-0.286,-0.316,-0.188,-42.75,123.29,0
2007082.0,0.485,0.359,0.159,35.11,-71.81,0
2007087.0,-0.319,-0.445,-0.073,-53.66,102.85,0
2007092.0,-0.066,-0.39,-0.231,-58.42,164.12,0
2007097.0,-0.363,-0.422,-0.147,-47.13,112.08,0
2007102.0,0.375,0.309,-0.035,39.35,-95.27,0
2007107.0,-0.485,-0.316,0.071,-32.84,81.69,0
2007112.0,0.284,0.268,-0.085,42.13,-106.64,0
2007117.0,-0.47,-0.283,0.174,-29.41,69.72,0
2007122.0,0.358,0.304,-0.03,40.22,-94.75,0
2007127.0,-0.343,-0.343,-0.068,-44.37,101.21,0
2007132.0,0.078,-0.371,-0.264,-53.41,-163.57,0
2007137.0,-0.384,-0.355,0.08,-42.09,78.18,0
2007142.0,0.372,0.285,0.092,36.58,-76.08,0
2007147.0,-0.463,0.426,0.176,40.69,69.18,0
2007152.0,0.382,-0.252,-0.039,-33.22,-95.88,0
2007157.0,-0.559,0.194,0.04,19.08,85.94,0
2007162.0,0.325,-0.35,0.001,-47.13,-89.76,0
2007167.0,-0.454,0.349,0.073,37.25,80.83,0
2007172.0,0.133,-0.196,-0.056,-53.69,-112.87,0
2007177.0,-0.341,0.239,0.013,35.03,87.76,0
2007182.0,0.425,-0.369,0.021,-40.91,-87.24,0
2007187.0,-0.372,0.316,0.016,40.3,87.58,0
2007192.0,0.037,-0.204,-0.24,-39.93,-171.19,0
2007197.0,0.032,0.211,0.064,71.26,-27.05,0
2007202.0,-0.066,-0.283,0.032,-75.47,63.69,0
2007207.0,-0.102,0.237,0.023,66.27,77.3,0
2007212.0,-0.015,-0.141,0.107,-52.68,8.21,0
2007217.0,-0.183,0.223,0.176,41.22,46.1,0
2007222.0,0.15,-0.271,-0.018,-60.87,-96.78,0
2007227.0,-0.121,0.182,0.013,56.25,83.7,0
2007232.0,0.234,-0.101,-0.054,-22.79,-102.95,0
2007237.0,0.04,0.124,-0.061,59.69,-146.92,0
2007242.0,0.246,-0.127,0.013,-27.32,-86.89,0
2007247.0,-0.027,0.014,0.188,4.27,8.28,0
2007252.0,0.123,-0.113,0.011,-42.28,-84.94,0
2007257.0,-0.188,0.148,-0.073,36.36,111.21,0
2007262.0,0.08,-0.17,0.047,-61.33,-59.76,0
2007267.0,-0.164,0.175,0.243,30.77,33.97,0
2007272.0,0.265,-0.144,0.181,-24.16,-55.65,0
2007277.0,-0.114,0.084,-0.011,36.25,95.34,0
2007282.0,0.186,-0.17,-0.104,-38.64,-119.25,0
2007287.0,-0.111,0.088,0.001,38.5,89.3,0
2007292.0,0.265,-0.084,0.193,-14.38,-53.92,0
2007297.0,-0.173,0.038,0.109,10.55,57.83,0
2007302.0,0.226,-0.022,0.157,-4.51,-55.27,0
2007307.0,-0.128,-0.041,0.083,-15.01,57.1,0
2007312.0,0.406,0.079,0.076,10.81,-79.45,0
2007317.0,-0.171,-0.106,0.1,-28.07,59.81,0
2007322.0,0.356,-0.005,0.159,-0.73,-65.86,0
2007327.0,-0.274,-0.01,-0.025,-2.03,95.21,0
2007332.0,0.27,0.007,0.071,1.44,-75.28,0
2007337.0,-0.188,0.017,0.114,4.32,58.77,0
2007342.0,0.195,-0.038,0.116,-9.61,-59.23,0
2007347.0,-0.145,-0.0,-0.068,-0.06,115.2,0
2007352.0,0.317,0.163,0.004,27.13,-89.32,0
2007357.0,-0.319,-0.144,-0.011,-24.22,91.9,0
2007362.0,0.339,0.084,0.09,13.41,-75.14,0
2007367.0,-0.248,-0.216,-0.006,-41.04,91.35,0
2007372.0,0.248,0.256,0.131,42.41,-62.22,0
2007377.0,-0.387,-0.094,-0.097,-13.21,104.06,0
2007382.0,0.258,-0.034,0.006,-7.45,-88.63,0
2007387.0,-0.269,-0.06,-0.111,-11.64,112.44,0
2007392.0,0.346,0.091,0.028,14.66,-85.43,0
2007397.0,-0.312,-0.074,-0.07,-13.08,102.72,0
2007402.0,0.339,0.014,-0.008,2.4,-91.39,0
2007407.0,-0.264,-0.053,0.013,-11.29,87.11,0
2007412.0,0.303,0.088,0.179,14.11,-59.5,0
2007417.0,-0.195,-0.18,0.037,-42.16,79.18,0
2007422.0,0.377,0.189,0.107,25.74,-74.21,0
2007427.0,-0.193,-0.208,-0.073,-45.35,110.73,0
2007432.0,0.382,0.273,0.193,32.51,-63.21,0
2007437.0,-0.293,-0.199,0.159,-30.8,61.47,0
2007442.0,0.317,0.191,0.281,24.28,-48.43,0
2007447.0,-0.42,-0.311,-0.142,-35.08,108.72,0
2007452.0,0.27,0.22,0.004,39.24,-89.2,0
2007457.0,-0.272,-0.139,0.006,-27.1,88.7,0
2007462.0,0.466,0.155,0.15,17.63,-72.17,0
2007467.0,-0.207,-0.283,-0.094,-51.18,114.52,0
2007472.0,0.504,0.254,0.143,25.83,-74.2,0
2007477.0,-0.264,-0.29,0.042,-47.27,80.96,0
2007482.0,0.353,0.27,0.188,34.04,-61.97,0
2007487.0,-0.439,-0.319,-0.025,-35.91,93.26,0
2007492.0,0.404,0.337,0.267,34.88,-56.5,0
2007497.0,-0.331,-0.352,0.214,-41.73,57.1,0
2007502.0,0.401,0.34,0.21,36.9,-62.41,0
2007507.0,-0.207,-0.393,-0.104,-59.48,116.68,0
2007512.0,0.535,0.357,0.195,32.04,-69.96,0
2007517.0,-0.2,-0.266,-0.114,-49.17,119.62,0
2007522.0,0.389,0.184,-0.116,24.4,-106.59,0
2007527.0,-0.248,-0.271,-0.066,-46.58,104.85,0
2007532.0,0.423,0.323,0.456,27.45,-42.82,0
2007537.0,-0.432,-0.199,0.09,-24.26,78.24,0
2007542.0,0.305,0.187,0.032,31.28,-83.93,0
2007547.0,-0.401,-0.434,-0.02,-47.2,92.88,0
2007552.0,0.497,0.345,0.327,30.08,-56.66,0
2007557.0,-0.42,-0.347,-0.039,-39.46,95.35,0
2007562.0,0.428,0.361,0.08,39.72,-79.35,0
2007567.0,-0.24,-0.283,-0.118,-46.53,116.21,0
2007572.0,0.475,0.34,-0.018,35.54,-92.14,0
2007577.0,-0.322,-0.366,-0.269,-41.13,129.91,0
2007582.0,0.404,0.249,0.236,28.02,-59.68,0
2007587.0,-0.48,-0.297,0.15,-30.58,72.66,0
2007592.0,0.471,0.354,0.207,34.56,-66.23,0
2007597.0,-0.53,-0.352,-0.202,-31.82,110.87,0
2007602.0,0.291,0.299,0.152,42.32,-62.4,0
2007607.0,-0.475,-0.347,-0.047,-36.04,95.59,0
2007612.0,0.485,0.395,-0.188,37.21,-111.17,0
2007617.0,-0.245,-0.338,-0.051,-53.43,101.82,0
2007622.0,0.526,0.313,0.059,30.65,-83.62,0
2007627.0,-0.217,-0.503,-0.202,-59.5,133.03,0
2007632.0,0.566,0.414,0.169,35.01,-73.39,0
2007637.0,-0.351,-0.333,0.035,-43.38,84.32,0
2007642.0,0.439,0.349,0.217,35.49,-63.74,0
2007647.0,-0.353,-0.417,-0.094,-48.76,104.97,0
2007652.0,0.36,-0.398,-0.149,-45.53,-112.52,0
2007657.0,-0.458,-0.278,0.004,-31.23,89.53,0
2007662.0,0.298,0.294,0.265,36.43,-48.41,0
2007667.0,-0.463,-0.29,-0.09,-31.57,100.95,0
2007672.0,0.418,0.244,-0.018,30.26,-92.44,0
2007677.0,-0.449,-0.333,-0.25,-32.95,119.13,0
2007682.0,0.519,0.328,0.116,31.67,-77.36,0
2007687.0,-0.255,-0.355,-0.13,-51.08,117.09,0
2007692.0,0.123,-0.254,-0.066,-61.16,-118.01,0
2007697.0,-0.329,-0.319,-0.07,-43.43,102.09,0
2007702.0,0.389,0.244,-0.284,26.88,-126.07,0
2007707.0,-0.518,-0.398,-0.114,-36.85,102.36,0
2007712.0,0.317,0.309,0.253,37.26,-51.47,0
2007717.0,-0.432,-0.242,0.317,-24.29,53.69,0
2007722.0,0.238,0.333,-0.197,47.07,-129.62,0
2007727.0,-0.487,-0.388,-0.243,-35.49,116.5,0
2007732.0,0.188,-0.223,0.009,-49.8,-87.4,0
2007737.0,-0.202,-0.359,0.111,-57.28,61.12,0
2007742.0,0.485,0.385,-0.248,35.28,-117.05,0
2007747.0,-0.288,0.266,-0.14,39.65,115.88,0
2007752.0,0.507,-0.285,-0.078,-29.09,-98.72,0
2007757.0,-0.327,0.225,0.004,34.55,89.34,0
2007762.0,0.253,-0.287,-0.025,-48.54,-95.64,0
2007767.0,-0.413,0.302,0.097,35.41,76.76,0
2007772.0,-0.03,-0.12,-0.09,-51.77,161.63,0
2007777.0,-0.463,0.076,0.04,9.34,85.1,0
2007782.0,0.313,-0.235,-0.042,-36.67,-97.61,0
2007787.0,-0.152,0.191,0.071,48.8,65.01,0
2007792.0,0.265,-0.055,0.1,-11.05,-69.4,0
2007797.0,0.013,0.148,-0.202,36.2,-176.23,0
2007802.0,0.183,-0.299,-0.245,-44.36,-143.22,0
2007807.0,0.1,0.299,0.167,57.03,-30.86,0
2007812.0,0.202,-0.101,0.186,-20.13,-47.47,0
2007817.0,-0.111,0.108,-0.114,34.1,135.61,0
2007822.0,0.083,-0.304,-0.044,-72.87,-118.07,0
2007827.0,-0.116,0.127,0.442,15.5,14.7,0
2007832.0,0.064,0.007,0.27,1.45,-13.28,0
2007837.0,-0.214,-0.019,-0.315,-2.9,145.77,0
2007842.0,0.167,-0.141,-0.138,-33.21,-129.54,0
2007847.0,-0.027,0.112,0.492,12.84,3.18,0
2007852.0,0.382,0.098,0.133,13.62,-70.8,0
2007857.0,-0.07,-0.079,-0.367,-11.95,169.14,0
2007862.0,0.308,-0.137,0.018,-23.9,-86.63,0
2007867.0,-0.185,-0.089,0.181,-18.91,45.7,0
2007872.0,0.217,0.081,-0.011,20.52,-92.8,0
2007877.0,-0.317,0.036,-0.138,5.91,113.45,0
2007882.0,0.217,0.007,0.162,1.49,-53.28,0
2007887.0,-0.185,-0.036,0.09,-9.93,64.12,0
2007892.0,0.301,-0.017,0.035,-3.2,-83.38,0
2007897.0,-0.171,0.009,0.066,2.94,68.9,0
2007902.0,0.284,0.009,0.114,1.76,-68.14,0
2007907.0,-0.169,-0.046,-0.231,-9.07,143.86,0
2007912.0,0.507,0.019,0.006,2.15,-89.31,0
2007917.0,-0.205,-0.084,0.224,-15.47,42.4,0
2007922.0,0.317,0.007,0.238,1.01,-53.09,0
2007927.0,-0.195,-0.194,0.021,-44.71,83.99,0
2007932.0,0.279,0.146,0.243,21.51,-48.93,0
2007937.0,-0.274,-0.132,0.131,-23.48,64.51,0
2007942.0,0.202,0.223,0.052,46.8,-75.69,0
2007947.0,-0.171,-0.134,0.076,-35.67,66.16,0
2007952.0,0.571,0.206,0.339,17.21,-59.31,0
2007957.0,-0.25,-0.319,-0.013,-51.84,92.98,0
2007962.0,0.511,0.151,-0.147,15.81,-106.05,0
2007967.0,-0.31,-0.108,-0.102,-18.31,108.15,0
2007972.0,0.485,0.309,0.346,27.39,-54.49,0
2007977.0,-0.319,-0.374,0.049,-49.14,81.24,0
2007982.0,0.346,0.146,-0.03,22.78,-94.92,0
2007987.0,-0.185,-0.307,0.123,-54.0,56.34,0
2007992.0,0.224,0.383,0.394,40.19,-29.62,0
2007997.0,-0.339,-0.24,0.073,-34.67,77.8,0
2008002.0,0.265,0.124,0.169,21.6,-57.45,0
2008007.0,-0.224,-0.225,0.102,-42.5,65.51,0
2008012.0,0.499,0.28,0.25,26.62,-63.37,0
2008017.0,-0.31,-0.213,-0.171,-31.07,118.89,0
2008022.0,0.54,0.127,-0.006,13.21,-90.62,0
2008027.0,-0.142,-0.261,0.126,-53.96,48.51,0
2008032.0,0.428,0.275,0.155,31.19,-70.12,0
2008037.0,-0.197,-0.213,-0.111,-43.27,119.39,0
2008042.0,0.473,0.213,0.25,21.7,-62.11,0
2008047.0,-0.327,-0.321,0.111,-42.92,71.15,0
2008052.0,0.308,0.359,0.246,42.35,-51.42,0
2008057.0,-0.372,-0.398,0.092,-46.04,76.07,0
2008062.0,0.487,0.364,0.404,29.89,-50.37,0
2008067.0,-0.343,-0.436,0.071,-51.19,78.35,0
2008072.0,0.602,0.414,0.174,33.44,-73.91,0
2008077.0,-0.169,-0.28,-0.035,-58.44,101.58,0
2008082.0,0.471,0.225,-0.008,25.54,-91.0,0
2008087.0,-0.3,-0.29,-0.3,-34.31,135.0,0
2008092.0,0.428,0.23,0.095,27.68,-77.51,0
2008097.0,-0.413,-0.285,0.217,-31.44,62.29,0
2008102.0,0.387,0.385,0.492,31.61,-38.17,0
2008107.0,-0.509,-0.544,0.052,-46.76,84.2,0
2008112.0,0.408,0.483,-0.066,49.45,-99.14,0
2008117.0,-0.437,-0.326,-0.152,-35.16,109.17,0
2008122.0,0.444,0.433,0.219,41.17,-63.74,0
2008127.0,-0.336,-0.426,-0.233,-46.17,124.75,0
2008132.0,0.667,0.306,-0.094,24.45,-98.06,0
2008137.0,-0.279,-0.352,-0.008,-51.62,91.69,0
2008142.0,0.542,0.366,0.097,33.6,-79.85,0
2008147.0,-0.578,-0.429,-0.281,-33.7,115.94,0
2008152.0,0.305,0.34,0.37,35.31,-39.53,0
2008157.0,-0.552,-0.156,0.217,-14.72,68.54,0
2008162.0,0.248,0.294,0.078,48.55,-72.54,0
2008167.0,-0.37,-0.465,-0.346,-42.55,133.08,0
2008172.0,0.641,0.325,0.277,25.0,-66.64,0
2008177.0,-0.159,-0.374,0.176,-57.58,42.08,0
2008182.0,0.581,0.395,-0.006,34.21,-90.57,0
2008187.0,-0.391,-0.352,-0.542,-27.77,144.18,0
2008192.0,0.439,0.392,0.226,38.45,-62.74,0
2008197.0,-0.518,-0.383,0.416,-29.98,51.27,0
2008202.0,0.298,0.34,0.248,41.22,-50.26,0
2008207.0,-0.645,-0.443,-0.406,-30.18,122.16,0
2008212.0,0.384,0.342,0.088,40.96,-77.17,0
2008217.0,-0.329,-0.307,0.147,-40.38,65.87,0
2008222.0,0.619,0.354,0.123,29.3,-78.72,0
2008227.0,-0.336,-0.357,-0.427,-33.28,141.8,0
2008232.0,0.538,0.299,-0.161,28.05,-106.71,0
2008237.0,-0.346,-0.378,-0.228,-42.4,123.45,0
2008242.0,0.31,0.33,0.14,44.13,-65.68,0
2008247.0,-0.578,-0.386,-0.035,-33.66,93.42,0
2008252.0,0.356,0.515,0.439,42.31,-38.98,0
2008257.0,-0.427,-0.474,-0.106,-47.13,103.98,0
2008262.0,0.231,0.309,-0.003,53.17,-90.85,0
2008267.0,-0.422,-0.422,-0.047,-44.77,96.29,0
2008272.0,0.53,0.419,0.277,34.99,-62.45,0
2008277.0,-0.365,-0.216,-0.415,-21.31,138.69,0
2008282.0,0.406,0.347,-0.274,35.32,-124.01,0
2008287.0,-0.403,-0.422,-0.116,-45.13,106.04,0
2008292.0,0.052,-0.208,0.018,-75.29,-70.67,0
2008297.0,-0.408,-0.249,-0.063,-31.11,98.82,0
2008302.0,0.188,0.321,0.052,58.69,-74.65,0
2008307.0,-0.451,-0.261,0.174,-28.38,68.94,0
2008312.0,0.291,0.143,-0.133,24.16,-114.51,0
2008317.0,-0.408,-0.285,0.126,-33.73,72.86,0
2008322.0,0.296,0.366,0.21,45.28,-54.68,0
2008327.0,-0.425,-0.297,0.044,-34.82,84.03,0
2008332.0,0.267,-0.249,-0.188,-37.35,-125.11,0
2008337.0,-0.363,-0.355,0.016,-44.33,87.52,0
2008342.0,0.375,-0.161,0.109,-22.36,-73.77,0
2008347.0,-0.468,0.242,0.116,26.62,76.04,0
2008352.0,0.262,-0.266,0.061,-44.63,-76.87,0
2008357.0,-0.427,0.096,0.09,12.35,78.11,0
2008362.0,0.234,-0.244,-0.039,-45.89,-99.56,0
2008367.0,-0.403,0.182,0.011,24.26,88.45,0
2008372.0,0.135,-0.0,0.013,-0.07,-84.38,0
2008377.0,-0.296,0.076,0.226,11.61,52.54,0
2008382.0,0.303,-0.153,0.104,-25.58,-71.01,0
2008387.0,-0.161,0.076,-0.324,11.92,153.53,0
2008392.0,0.274,-0.103,-0.181,-17.43,-123.36,0
2008397.0,-0.221,0.024,0.243,4.14,42.3,0
2008402.0,0.224,-0.072,0.157,-14.74,-54.98,0
2008407.0,-0.205,0.043,0.016,11.82,85.6,0
2008412.0,0.181,-0.007,0.076,-2.14,-67.33,0
2008417.0,-0.159,0.019,0.09,5.93,60.51,0
2008422.0,0.298,-0.029,0.193,-4.65,-57.11,0
2008427.0,-0.061,0.086,0.133,30.46,24.59,0
2008432.0,0.25,0.053,0.004,11.85,-89.14,0
2008437.0,-0.133,-0.065,-0.092,-21.86,124.73,0
2008442.0,0.272,-0.103,0.023,-20.7,-85.19,0
2008447.0,-0.14,-0.06,0.128,-17.55,47.49,0
2008452.0,0.36,0.115,0.19,15.72,-62.15,0
2008457.0,-0.228,-0.115,-0.092,-25.04,111.94,0
2008462.0,0.241,-0.038,0.04,-8.96,-80.65,0
2008467.0,-0.161,-0.079,0.238,-15.38,34.11,0
2008472.0,0.349,0.311,0.277,34.96,-51.55,0
2008477.0,-0.209,-0.07,-0.291,-10.99,144.25,0
2008482.0,0.399,0.007,-0.085,0.99,-102.01,0
2008487.0,-0.138,-0.137,0.217,-28.02,32.38,0
2008492.0,0.353,0.064,0.202,9.0,-60.18,0
2008497.0,-0.339,-0.11,-0.209,-15.49,121.72,0
2008502.0,0.226,-0.019,0.054,-4.74,-76.58,0
2008507.0,-0.219,-0.098,0.387,-12.47,29.51,0
2008512.0,0.289,0.232,0.298,29.21,-44.07,0
2008517.0,-0.233,-0.117,-0.161,-22.49,124.69,0
2008522.0,0.48,0.108,0.15,12.07,-72.67,0
2008527.0,-0.159,-0.264,0.071,-56.55,66.01,0
2008532.0,0.504,0.254,0.143,25.83,-74.2,0
2008537.0,-0.219,-0.141,0.011,-32.83,87.14,0
2008542.0,0.329,0.098,0.061,16.31,-79.47,0
2008547.0,-0.284,-0.273,-0.049,-43.5,99.79,0
2008552.0,0.308,0.263,0.155,37.38,-63.33,0
2008557.0,-0.358,-0.098,0.076,-15.05,78.07,0
2008562.0,0.277,0.177,0.126,30.21,-65.54,0
2008567.0,-0.394,-0.297,-0.082,-36.45,101.83,0
2008572.0,0.439,0.258,0.119,29.58,-74.89,0
2008577.0,-0.286,-0.175,0.169,-27.78,59.42,0
2008582.0,0.432,0.191,0.26,20.78,-58.98,0
2008587.0,-0.238,-0.319,-0.099,-51.01,112.62,0
2008592.0,0.471,0.302,0.095,32.13,-78.62,0
2008597.0,-0.214,-0.242,-0.025,-48.3,96.65,0
2008602.0,0.368,0.29,0.04,38.06,-83.84,0
2008607.0,-0.257,-0.249,0.025,-43.95,84.38,0
2008612.0,0.514,0.273,0.396,22.8,-52.35,0
2008617.0,-0.41,-0.297,0.145,-34.31,70.54,0
2008622.0,0.341,0.34,0.176,41.5,-62.71,0
2008627.0,-0.348,-0.309,0.032,-41.46,84.67,0
2008632.0,0.475,0.359,0.217,34.49,-65.48,0
2008637.0,-0.398,-0.355,-0.202,-38.43,116.9,0
2008642.0,0.396,0.28,0.016,35.21,-87.73,0
2008647.0,-0.205,-0.319,0.028,-57.06,82.29,0
2008652.0,0.394,0.323,0.293,33.33,-53.32,0
2008657.0,-0.351,-0.35,-0.219,-40.23,121.98,0
2008662.0,0.365,0.278,0.078,36.62,-77.95,0
2008667.0,-0.31,-0.287,0.064,-42.26,78.4,0
2008672.0,0.439,0.359,0.212,36.34,-64.24,0
2008677.0,-0.339,-0.395,-0.166,-46.33,116.15,0
2008682.0,0.439,0.227,0.183,25.52,-67.36,0
2008687.0,-0.329,-0.355,0.083,-46.26,75.88,0
2008692.0,0.459,0.445,0.253,40.37,-61.14,0
2008697.0,-0.398,-0.264,-0.185,-30.95,114.95,0
2008702.0,0.265,0.232,0.044,40.85,-80.47,0
2008707.0,-0.43,-0.429,-0.087,-44.36,101.48,0
2008712.0,0.396,0.388,0.176,41.79,-66.04,0
2008717.0,-0.37,-0.376,-0.197,-41.9,118.09,0
2008722.0,0.459,0.223,0.042,25.79,-84.76,0
2008727.0,-0.398,-0.39,-0.128,-43.01,107.8,0
2008732.0,0.418,0.44,0.102,45.67,-76.3,0
2008737.0,-0.41,-0.199,-0.286,-21.68,124.86,0
2008742.0,0.329,0.237,0.042,35.5,-82.72,0
2008747.0,-0.403,-0.56,-0.171,-51.99,112.98,0
2008752.0,0.432,0.428,0.329,38.25,-52.7,0
2008757.0,-0.382,-0.283,0.193,-33.46,63.19,0
2008762.0,0.36,0.385,0.186,43.54,-62.74,0
2008767.0,-0.449,-0.505,-0.231,-45.04,117.23,0
2008772.0,0.459,0.426,0.21,40.19,-65.43,0
2008777.0,-0.437,-0.299,0.023,-34.4,87.0,0
2008782.0,0.459,0.407,0.111,40.76,-76.34,0
2008787.0,-0.336,-0.486,-0.291,-47.56,130.85,0
2008792.0,0.49,0.294,0.021,30.98,-87.6,0
2008797.0,-0.312,-0.297,-0.281,-35.26,132.0,0
2008802.0,0.413,0.404,0.202,41.32,-63.89,0
2008807.0,-0.521,-0.386,-0.13,-35.7,104.05,0
2008812.0,0.351,0.323,-0.188,39.07,-118.15,0
2008817.0,-0.609,-0.376,-0.296,-29.05,115.88,0
2008822.0,0.279,0.392,0.155,50.89,-61.02,0
2008827.0,-0.456,-0.362,-0.02,-38.4,92.54,0
2008832.0,0.428,0.385,0.255,37.74,-59.17,0
2008837.0,-0.274,-0.412,-0.346,-43.04,141.61,0
2008842.0,0.43,0.39,-0.118,41.18,-105.39,0
2008847.0,-0.312,-0.357,-0.097,-47.51,107.22,0
2008852.0,0.461,-0.249,-0.032,-28.33,-93.99,0
2008857.0,-0.552,-0.386,-0.293,-31.69,117.98,0
2008862.0,0.327,0.318,-0.003,44.23,-90.6,0
2008867.0,-0.499,-0.335,0.004,-33.9,89.57,0
2008872.0,0.296,0.292,0.277,35.78,-46.92,0
2008877.0,-0.442,-0.321,-0.269,-31.83,121.37,0
2008882.0,0.365,0.268,0.102,35.25,-74.41,0
2008887.0,-0.449,-0.357,-0.255,-34.67,119.59,0
2008892.0,0.179,-0.163,-0.106,-38.1,-120.79,0
2008897.0,-0.291,-0.299,0.195,-40.53,56.11,0
2008902.0,0.365,0.287,0.133,36.45,-69.99,0
2008907.0,-0.466,-0.424,-0.173,-40.48,110.43,0
2008912.0,0.262,0.294,-0.094,46.55,-109.79,0
2008917.0,-0.351,-0.254,0.265,-30.03,52.94,0
2008922.0,0.267,0.345,0.229,44.42,-49.42,0
2008927.0,-0.489,-0.371,0.049,-37.04,84.26,0
2008932.0,0.21,-0.094,-0.051,-23.43,-103.75,0
2008937.0,-0.473,-0.304,0.181,-31.01,69.06,0
2008942.0,0.222,-0.127,0.207,-22.72,-46.92,0
2008947.0,-0.387,0.057,0.064,8.32,80.65,0
2008952.0,0.382,-0.0,-0.097,-0.02,-104.22,0
2008957.0,-0.26,0.074,-0.087,15.13,108.57,0
2008962.0,0.344,-0.216,-0.104,-30.98,-106.83,0
2008967.0,-0.41,0.122,-0.027,16.51,93.82,0
2008972.0,0.076,0.009,0.145,3.3,-27.53,0
2008977.0,-0.298,0.122,0.092,21.35,72.78,0
2008982.0,0.193,-0.163,-0.051,-39.23,-104.9,0
2008987.0,-0.267,0.014,-0.097,2.87,109.94,0
2008992.0,0.236,0.041,0.15,8.25,-57.59,0
2008997.0,-0.217,0.064,0.04,16.33,79.62,0
2009002.0,0.284,-0.127,-0.049,-23.8,-99.78,0
2009007.0,-0.149,-0.031,-0.003,-11.82,91.32,0
2009012.0,0.267,0.103,0.076,20.32,-74.2,0
2009017.0,-0.149,-0.07,0.128,-19.46,49.37,0
2009022.0,0.37,0.017,0.107,2.47,-73.92,0
2009027.0,-0.257,-0.125,0.1,-24.32,68.85,0
2009032.0,0.363,0.091,0.289,11.08,-51.5,0
2009037.0,-0.272,-0.0,0.095,-0.03,70.77,0
2009042.0,0.382,-0.026,0.088,-3.87,-77.09,0
2009047.0,-0.245,-0.098,-0.054,-21.39,102.35,0
2009052.0,0.332,0.1,0.097,16.2,-73.68,0
2009057.0,-0.154,-0.108,-0.087,-31.33,119.49,0
2009062.0,0.042,0.275,0.145,61.25,-16.17,0
2009067.0,-0.094,-0.096,0.152,-28.17,31.81,0
2009072.0,0.303,-0.024,0.09,-4.36,-73.47,0
2009077.0,-0.506,-0.026,-0.111,-2.93,102.39,0
2009082.0,0.308,-0.015,0.04,-2.68,-82.66,0
2009087.0,-0.355,-0.046,-0.011,-7.32,91.71,0
2009092.0,0.368,0.191,0.171,25.26,-65.01,0
2009097.0,-0.147,-0.165,0.159,-37.32,42.7,0
2009102.0,0.442,0.189,0.126,22.36,-74.1,0
2009107.0,-0.228,-0.271,-0.183,-42.76,128.69,0
2009112.0,0.526,0.275,0.128,26.96,-76.29,0
2009117.0,-0.343,-0.302,0.128,-39.47,69.52,0
2009122.0,0.375,0.196,0.193,24.95,-62.77,0
2009127.0,-0.248,-0.264,-0.193,-40.03,127.87,0
2009132.0,0.293,0.302,0.159,42.08,-61.49,0
2009137.0,-0.25,-0.129,0.159,-23.58,57.49,0
2009142.0,0.301,0.117,0.258,16.49,-49.42,0
2009147.0,-0.36,-0.323,0.009,-41.91,88.64,0
2009152.0,0.425,0.275,0.03,32.85,-85.95,0
2009157.0,-0.418,-0.204,-0.149,-24.66,109.69,0
2009162.0,0.351,0.237,0.145,31.96,-67.55,0
2009167.0,-0.303,-0.359,0.131,-47.46,66.66,0
2009172.0,0.406,0.354,0.066,40.73,-80.77,0
2009177.0,-0.291,-0.316,-0.13,-44.78,114.14,0
2009182.0,0.406,0.316,0.222,34.33,-61.37,0
2009187.0,-0.195,-0.381,0.088,-60.7,65.82,0
2009192.0,0.502,0.256,0.095,26.63,-79.31,0
2009197.0,-0.327,-0.249,-0.03,-37.22,95.21,0
2009202.0,0.581,0.369,0.439,26.84,-52.88,0
2009207.0,-0.224,-0.283,0.181,-44.49,51.04,0
2009212.0,0.471,0.29,-0.094,31.1,-101.34,0
2009217.0,-0.351,-0.292,-0.231,-34.85,123.37,0
2009222.0,0.468,0.268,0.451,22.39,-46.04,0
2009227.0,-0.372,-0.371,0.171,-42.18,65.28,0
2009232.0,0.425,0.352,0.145,38.07,-71.17,0
2009237.0,-0.363,-0.326,0.006,-41.94,89.03,0
2009242.0,0.425,0.352,0.176,37.4,-67.5,0
2009247.0,-0.327,-0.314,-0.219,-38.59,123.83,0
2009252.0,0.399,0.361,0.032,42.09,-85.34,0
2009257.0,-0.353,-0.287,-0.102,-38.05,106.06,0
2009262.0,0.447,0.285,-0.011,32.51,-91.36,0
2009267.0,-0.432,-0.474,-0.255,-43.4,120.54,0
2009272.0,0.389,0.404,0.207,42.53,-61.96,0
2009277.0,-0.41,-0.364,0.09,-40.91,77.64,0
2009282.0,0.339,0.318,0.049,42.9,-81.73,0
2009287.0,-0.528,-0.386,-0.245,-33.53,114.92,0
2009292.0,0.511,0.519,0.344,40.13,-56.09,0
2009297.0,-0.272,-0.345,0.083,-50.54,73.05,0
2009302.0,0.49,0.27,-0.054,28.76,-96.26,0
2009307.0,-0.343,-0.453,-0.279,-45.66,129.07,0
2009312.0,0.475,0.335,0.36,29.32,-52.83,0
2009317.0,-0.274,-0.201,0.174,-31.82,57.62,0
2009322.0,0.325,0.203,0.071,31.47,-77.7,0
2009327.0,-0.449,-0.302,-0.209,-31.36,115.01,0
2009332.0,0.485,0.302,0.231,29.3,-64.51,0
2009337.0,-0.42,-0.331,-0.068,-37.84,99.21,0
2009342.0,0.394,0.292,0.068,36.13,-80.15,0
2009347.0,-0.343,-0.445,-0.164,-49.5,115.51,0
2009352.0,0.502,0.445,0.248,38.5,-63.7,0
2009357.0,-0.358,-0.374,-0.173,-43.22,115.86,0
2009362.0,0.339,0.361,0.116,45.24,-71.06,0
2009367.0,-0.375,-0.429,-0.013,-48.84,91.99,0
2009372.0,0.411,0.342,0.279,34.57,-55.81,0
2009377.0,-0.391,-0.297,-0.13,-35.76,108.42,0
2009382.0,0.339,0.256,0.181,33.68,-61.91,0
2009387.0,-0.394,-0.4,-0.087,-44.77,102.49,0
2009392.0,0.461,0.402,0.064,40.82,-82.15,0
2009397.0,-0.36,-0.314,-0.322,-33.01,131.79,0
2009402.0,0.301,0.395,0.056,52.24,-79.37,0
2009407.0,-0.382,-0.477,0.042,-51.14,83.71,0
2009412.0,0.281,0.306,-0.08,46.31,-105.87,0
2009417.0,-0.434,-0.273,-0.267,-28.18,121.56,0
2009422.0,0.356,0.354,0.083,44.12,-76.9,0
2009427.0,-0.353,-0.35,-0.039,-44.56,96.36,0
2009432.0,0.471,0.275,0.114,29.61,-76.4,0
2009437.0,-0.312,-0.34,-0.181,-43.32,120.04,0
2009442.0,0.425,0.378,0.133,40.33,-72.62,0
2009447.0,-0.315,-0.302,0.08,-42.9,75.67,0
2009452.0,0.382,-0.278,-0.193,-33.01,-116.75,0
2009457.0,-0.398,-0.299,-0.274,-31.77,124.51,0
2009462.0,0.473,0.426,0.181,40.07,-69.07,0
2009467.0,-0.346,-0.331,0.071,-43.12,78.43,0
2009472.0,0.509,0.242,0.121,24.79,-76.62,0
2009477.0,-0.341,-0.393,-0.329,-39.66,133.98,0
2009482.0,0.286,0.438,0.162,53.1,-60.53,0
2009487.0,-0.535,-0.242,-0.157,-23.47,106.32,0
2009492.0,0.55,-0.072,0.004,-7.46,-89.61,0
2009497.0,-0.853,-0.371,0.198,-22.97,76.96,0
2009502.0,0.425,0.309,0.188,33.58,-66.13,0
2009507.0,-0.36,-0.316,-0.351,-32.17,134.23,0
2009512.0,0.236,0.407,-0.298,46.95,-141.62,0
