time_ms,accel_x,accel_y,accel_z,pitch,roll,sync
99536.0,0.012,-0.016,0.028,-27.59,-22.75,0
99541.0,-0.012,-0.016,-0.001,-52.74,92.64,0
99546.0,-0.003,-0.028,0.014,-63.31,10.48,0
99551.0,-0.005,-0.023,0.014,-57.64,19.72,0
99556.0,0.002,-0.014,0.014,-44.13,-9.19,0
99561.0,-0.005,-0.004,-0.048,-4.68,174.17,0
99566.0,-0.007,0.008,-0.013,28.79,149.63,0
99571.0,-0.012,-0.014,-0.003,-47.38,103.68,0
99576.0,0.024,-0.016,0.004,-33.46,-79.92,0
99581.0,0.005,0.03,-0.01,69.32,-155.46,0
99586.0,0.024,0.022,-0.003,43.0,-97.08,0
99591.0,0.019,0.001,0.011,2.06,-59.0,0
99596.0,0.005,0.013,-0.044,16.22,-173.95,0
99601.0,-0.0,0.018,-0.001,88.1,164.08,0
99606.0,0.012,0.008,0.043,10.25,-15.52,0
99611.0,0.029,0.008,-0.015,13.91,-117.58,0
99616.0,0.007,0.001,-0.008,4.37,-137.79,0
99621.0,-0.005,-0.002,-0.022,-4.03,167.38,0
99626.0,0.024,0.013,-0.015,24.45,-122.11,0
99631.0,-0.0,-0.018,-0.013,-55.68,179.27,0
99636.0,0.019,-0.011,0.014,-25.45,-53.99,0
99641.0,-0.01,-0.023,0.014,-53.87,35.19,0
99646.0,0.005,-0.018,-0.001,-75.75,-96.9,0
99651.0,0.002,0.015,-0.013,49.99,-169.89,0
99656.0,-0.015,-0.009,0.021,-18.98,34.68,0
99661.0,0.036,-0.006,0.038,-7.0,-43.45,0
99666.0,-0.005,-0.009,-0.027,-17.8,169.58,0
99671.0,-0.0,-0.014,0.019,-36.12,0.49,0
99676.0,-0.003,-0.006,0.011,-28.63,12.61,0
99681.0,0.002,-0.004,-0.01,-21.03,-167.57,0
99686.0,-0.005,0.013,0.026,25.94,10.87,0
99691.0,-0.0,0.027,0.045,31.13,0.2,0
99696.0,0.026,-0.004,0.002,-8.65,-85.99,0
99701.0,0.009,0.02,0.026,36.02,-20.07,0
99706.0,-0.029,0.01,0.023,15.6,51.01,0
99711.0,-0.003,0.015,0.05,16.94,2.94,0
99716.0,0.024,-0.002,0.002,-3.83,-85.59,0
99721.0,-0.0,0.041,-0.001,89.2,164.08,0
99726.0,-0.0,-0.006,0.016,-21.51,0.56,0
99731.0,0.021,-0.006,0.033,-9.23,-32.98,0
99736.0,0.009,0.027,0.043,31.92,-12.48,0
99741.0,-0.003,-0.014,0.05,-15.24,2.94,0
99746.0,0.033,-0.014,-0.015,-20.37,-114.1,0
99751.0,0.012,-0.045,0.009,-71.61,-52.64,0
99756.0,0.012,-0.047,0.031,-55.17,-21.13,0
99761.0,0.005,0.01,-0.027,20.81,-170.24,0
99766.0,0.021,-0.009,0.033,-12.59,-32.98,0
99771.0,0.012,-0.028,-0.01,-60.87,-130.64,0
99776.0,0.026,-0.014,0.026,-20.27,-45.44,0
99781.0,0.009,-0.014,-0.005,-51.4,-119.59,0
99786.0,-0.005,0.025,0.002,77.96,69.65,0
99791.0,0.007,0.003,-0.001,24.38,-94.56,0
99796.0,0.021,0.003,-0.008,7.99,-109.9,0
99801.0,-0.007,-0.009,-0.015,-27.82,153.81,0
99806.0,0.021,-0.011,-0.02,-21.01,-132.67,0
99811.0,0.024,-0.014,-0.008,-28.48,-108.03,0
99816.0,-0.007,-0.006,0.04,-8.89,10.37,0
99821.0,0.031,0.018,0.014,27.38,-65.97,0
99826.0,0.017,0.022,-0.003,52.96,-100.09,0
99831.0,0.007,0.018,-0.005,63.31,-127.29,0
99836.0,-0.0,-0.014,-0.005,-68.48,178.29,0
99841.0,-0.034,-0.004,0.014,-6.26,67.71,0
99846.0,-0.0,0.008,0.023,18.85,0.39,0
99851.0,-0.036,0.001,0.019,1.13,62.73,0
99856.0,0.014,-0.016,-0.068,-13.01,-168.13,0
99861.0,0.005,-0.014,0.014,-42.98,-18.54,0
99866.0,-0.031,0.008,0.028,10.73,48.0,0
99871.0,0.014,-0.011,-0.001,-38.16,-92.26,0
99876.0,0.024,0.015,-0.008,31.23,-108.03,0
99881.0,-0.015,0.015,0.021,30.71,34.68,0
99886.0,0.021,-0.006,-0.013,-14.44,-120.36,0
99891.0,0.029,0.018,0.009,30.37,-72.48,0
99896.0,0.014,-0.004,0.014,-11.39,-45.82,0
99901.0,0.041,-0.014,0.028,-15.37,-55.21,0
99906.0,0.005,-0.009,-0.008,-44.22,-149.13,0
99911.0,0.005,0.006,-0.01,26.63,-155.46,0
99916.0,0.002,-0.002,-0.029,-3.11,-175.64,0
99921.0,-0.007,-0.023,0.016,-52.46,24.38,0
99926.0,-0.01,0.003,-0.008,14.39,128.49,0
99931.0,-0.012,-0.018,0.016,-42.21,36.83,0
99936.0,-0.026,-0.004,-0.01,-8.01,110.94,0
99941.0,-0.007,-0.014,0.004,-58.01,60.06,0
99946.0,0.002,0.006,-0.039,8.17,-176.71,0
99951.0,-0.019,-0.016,-0.008,-37.49,111.84,0
99956.0,-0.0,-0.018,0.021,-41.17,0.44,0
99961.0,0.005,0.02,0.002,75.99,-68.38,0
99966.0,0.007,-0.002,0.021,-4.13,-18.5,0
99971.0,0.017,0.003,0.031,5.24,-28.51,0
99976.0,0.012,0.001,0.004,3.64,-70.3,0
99981.0,-0.0,-0.011,0.014,-38.98,0.66,0
99986.0,-0.01,-0.023,0.026,-40.03,20.69,0
99991.0,-0.024,-0.011,0.033,-15.3,36.18,0
99996.0,0.019,-0.006,0.019,-13.51,-45.61,0
100001.0,0.012,0.006,0.007,22.42,-60.72,0
100006.0,-0.012,-0.047,-0.001,-75.54,92.64,0
100011.0,0.017,0.015,0.002,42.24,-83.69,0
100016.0,-0.0,-0.042,0.009,-77.96,1.01,0
100021.0,-0.005,-0.014,-0.01,-50.26,153.98,0
100026.0,-0.003,-0.011,-0.001,-76.83,102.36,0
100031.0,0.014,-0.04,-0.01,-66.38,-125.51,0
100036.0,-0.0,0.01,0.016,32.64,0.56,0
100041.0,-0.036,0.013,0.014,18.29,69.06,0
100046.0,0.007,0.001,0.019,2.3,-20.69,0
100051.0,0.002,0.006,-0.003,56.46,-142.89,0
100056.0,0.014,0.008,0.009,25.38,-57.59,0
100061.0,-0.003,0.01,0.011,41.58,12.61,0
100066.0,0.017,0.001,-0.013,2.2,-127.05,0
100071.0,-0.007,-0.004,0.023,-9.25,17.43,0
100076.0,0.024,0.01,0.031,15.0,-37.89,0
100081.0,-0.01,-0.004,0.028,-7.63,19.07,0
100086.0,0.009,0.008,-0.008,33.21,-129.42,0
100091.0,0.026,-0.026,0.026,-34.81,-45.44,0
100096.0,0.009,-0.018,-0.017,-42.96,-151.46,0
100101.0,0.002,-0.011,0.021,-27.89,-6.08,0
100106.0,-0.012,-0.004,-0.001,-18.19,92.64,0
100111.0,-0.0,-0.004,0.002,-65.22,4.97,0
100116.0,-0.01,-0.016,0.011,-46.78,40.47,0
100121.0,0.017,-0.038,-0.02,-55.51,-139.9,0
100126.0,0.026,-0.014,-0.022,-21.6,-130.18,0
100131.0,0.014,0.003,-0.027,5.99,-152.16,0
100136.0,0.019,-0.014,0.047,-14.9,-21.87,0
100141.0,0.017,0.013,0.007,35.54,-68.25,0
100146.0,-0.015,0.001,-0.01,2.58,124.91,0
100151.0,0.002,-0.009,0.011,-37.05,-11.08,0
100156.0,-0.005,0.01,-0.017,29.94,164.06,0
100161.0,0.033,0.006,0.009,9.18,-74.87,0
100166.0,0.017,-0.004,0.004,-13.11,-75.71,0
100171.0,-0.007,0.015,0.045,18.42,9.28,0
100176.0,0.029,-0.002,0.004,-3.16,-81.58,0
100181.0,-0.007,0.003,-0.001,23.44,94.36,0
100186.0,0.024,0.008,-0.001,18.55,-91.35,0
100191.0,0.009,0.008,0.05,8.96,-10.73,0
100196.0,-0.005,0.032,0.026,50.57,10.87,0
100201.0,-0.003,0.015,0.016,42.76,8.96,0
100206.0,0.024,-0.028,0.009,-47.68,-69.24,0
100211.0,0.002,-0.009,-0.046,-10.78,-177.22,0
100216.0,0.026,-0.006,0.023,-10.31,-48.23,0
100221.0,-0.015,-0.011,0.014,-29.14,46.45,0
100226.0,0.021,0.039,0.023,50.98,-42.45,0
100231.0,-0.005,0.025,0.007,71.52,36.76,0
100236.0,0.017,-0.016,0.014,-36.47,-50.25,0
100241.0,0.002,-0.023,-0.046,-26.66,-177.22,0
100246.0,-0.0,0.018,-0.003,80.44,176.91,0
100251.0,0.005,0.022,0.033,33.88,-7.99,0
100256.0,0.019,-0.014,0.002,-35.41,-84.48,0
100261.0,0.007,0.02,-0.005,66.13,-127.29,0
100266.0,0.017,-0.009,0.002,-27.73,-83.69,0
100271.0,0.012,0.025,-0.013,55.16,-136.69,0
100276.0,-0.007,-0.018,0.019,-42.56,21.55,0
100281.0,0.014,-0.028,-0.005,-61.48,-110.63,0
100286.0,0.005,0.022,0.021,46.11,-12.44,0
100291.0,-0.003,0.025,-0.022,48.03,173.41,0
100296.0,0.031,-0.028,-0.015,-39.1,-115.73,0
100301.0,-0.01,-0.023,0.011,-57.05,40.47,0
100306.0,0.002,-0.016,0.038,-22.89,-3.39,0
100311.0,0.009,-0.028,-0.022,-49.29,-156.93,0
100316.0,0.012,0.03,0.014,58.4,-40.55,0
100321.0,0.021,-0.04,-0.02,-53.91,-132.67,0
100326.0,-0.022,-0.011,0.023,-19.3,42.87,0
100331.0,-0.007,-0.03,0.035,-40.03,11.73,0
100336.0,-0.003,0.001,0.035,1.29,4.13,0
100341.0,-0.012,-0.016,0.019,-35.71,33.12,0
100346.0,0.019,0.027,-0.017,46.55,-132.36,0
100351.0,-0.0,-0.009,0.021,-22.7,0.44,0
100356.0,0.014,-0.002,0.014,-4.61,-45.82,0
100361.0,0.012,-0.016,0.028,-27.59,-22.75,0
100366.0,0.009,0.01,0.014,31.83,-34.3,0
100371.0,0.014,0.006,0.033,8.85,-23.32,0
100376.0,0.036,0.003,-0.022,4.34,-121.73,0
100381.0,0.002,0.041,0.052,38.51,-2.46,0
100386.0,0.002,0.022,0.016,53.8,-7.85,0
100391.0,0.033,0.006,-0.051,5.25,-146.73,0
100396.0,0.005,-0.011,-0.013,-39.91,-159.73,0
100401.0,0.012,0.03,0.007,65.36,-60.72,0
100406.0,-0.005,-0.011,0.019,-30.14,14.9,0
100411.0,0.002,0.008,-0.01,37.55,-167.57,0
100416.0,0.017,-0.018,-0.001,-47.86,-91.93,0
100421.0,0.038,-0.014,0.004,-19.47,-83.67,0
100426.0,-0.022,0.003,-0.034,4.52,147.5,0
100431.0,0.019,-0.016,-0.001,-40.03,-91.69,0
100436.0,0.019,-0.023,0.019,-41.05,-45.61,0
100441.0,-0.017,0.01,0.011,26.95,56.0,0
100446.0,0.014,-0.014,0.028,-23.27,-26.76,0
100451.0,0.005,-0.006,0.021,-16.54,-12.44,0
100456.0,-0.015,-0.002,-0.044,-1.99,161.6,0
100461.0,-0.041,-0.009,0.009,-11.85,77.56,0
100466.0,-0.007,-0.021,0.007,-64.52,47.95,0
100471.0,0.007,-0.009,0.014,-29.54,-26.96,0
100476.0,-0.007,-0.004,-0.051,-4.44,171.78,0
100481.0,0.012,-0.002,-0.001,-7.69,-92.71,0
100486.0,0.009,-0.002,0.035,-2.5,-14.92,0
100491.0,0.019,0.03,0.019,48.01,-45.61,0
100496.0,-0.012,-0.002,-0.027,-3.1,155.72,0
100501.0,0.002,0.008,0.002,70.08,-50.61,0
100506.0,0.009,0.015,0.016,38.98,-30.17,0
100511.0,0.021,-0.026,-0.008,-48.31,-109.9,0
100516.0,-0.017,0.015,-0.001,41.85,91.9,0
100521.0,0.017,-0.018,0.007,-45.76,-68.25,0
100526.0,0.012,-0.002,0.047,-1.87,-14.01,0
100531.0,-0.01,-0.018,-0.01,-52.56,136.15,0
100536.0,0.012,-0.009,0.004,-34.98,-70.3,0
100541.0,0.002,0.013,-0.001,79.77,-104.06,0
100546.0,-0.029,-0.011,-0.022,-17.07,127.42,0
100551.0,0.038,-0.004,-0.022,-5.17,-120.09,0
100556.0,-0.015,0.008,0.011,23.37,51.84,0
100561.0,0.029,0.013,0.009,23.08,-72.48,0
100566.0,0.007,-0.014,-0.025,-28.03,-164.01,0
100571.0,-0.026,-0.004,0.004,-8.46,80.93,0
100576.0,0.017,-0.018,0.011,-42.34,-55.49,0
100581.0,-0.012,-0.03,-0.013,-60.1,135.93,0
100586.0,0.019,0.001,-0.027,1.39,-144.77,0
100591.0,0.012,0.013,0.033,20.04,-19.72,0
100596.0,0.009,-0.009,0.019,-22.84,-26.86,0
100601.0,-0.0,-0.011,-0.02,-29.54,179.54,0
100606.0,-0.012,0.003,-0.005,13.54,113.79,0
100611.0,0.019,0.025,0.033,33.04,-29.95,0
100616.0,-0.015,-0.006,0.026,-12.18,29.4,0
100621.0,-0.003,-0.009,0.007,-51.04,21.09,0
100626.0,0.024,-0.004,0.004,-9.38,-79.92,0
100631.0,-0.01,-0.016,0.002,-58.17,79.33,0
100636.0,0.019,-0.006,0.009,-16.89,-64.6,0
100641.0,-0.0,-0.002,0.033,-2.77,0.28,0
100646.0,-0.007,-0.028,0.014,-60.76,28.01,0
100651.0,-0.012,-0.018,-0.008,-51.9,122.55,0
100656.0,0.038,0.013,-0.02,16.56,-117.33,0
100661.0,0.026,0.006,-0.046,6.02,-150.38,0
100666.0,-0.031,-0.018,0.002,-30.36,86.64,0
100671.0,0.012,-0.026,-0.001,-65.16,-92.71,0
100676.0,0.036,-0.014,-0.001,-20.78,-90.9,0
100681.0,-0.005,-0.014,0.004,-64.37,49.48,0
100686.0,0.007,-0.006,-0.001,-42.18,-94.56,0
100691.0,0.019,-0.011,0.011,-26.76,-59.0,0
100696.0,-0.019,-0.006,-0.017,-13.83,131.88,0
100701.0,0.033,0.022,-0.005,33.48,-99.11,0
100706.0,-0.005,-0.021,0.019,-47.16,14.9,0
100711.0,-0.003,0.013,0.035,19.81,4.13,0
100716.0,0.009,0.001,-0.005,4.21,-119.59,0
100721.0,0.009,0.013,-0.034,19.86,-164.55,0
100726.0,-0.017,-0.011,0.04,-14.39,22.85,0
100731.0,-0.0,-0.011,0.004,-69.26,2.16,0
100736.0,-0.003,-0.004,0.016,-13.68,8.96,0
100741.0,-0.007,-0.006,0.033,-10.71,12.56,0
100746.0,0.002,0.02,-0.013,57.46,-169.89,0
100751.0,0.026,-0.004,-0.039,-4.87,-146.04,0
100756.0,-0.01,-0.03,-0.02,-54.06,153.72,0
100761.0,0.007,0.006,0.002,37.58,-75.36,0
100766.0,-0.007,-0.002,-0.02,-4.34,159.57,0
100771.0,-0.005,-0.021,-0.017,-49.04,164.06,0
100776.0,0.012,0.001,0.002,3.82,-81.17,0
100781.0,0.007,0.001,-0.032,1.41,-167.5,0
100786.0,0.019,-0.018,-0.001,-44.01,-91.69,0
100791.0,0.002,-0.014,-0.008,-59.29,-163.9,0
100796.0,0.014,-0.023,-0.017,-45.94,-140.64,0
100801.0,-0.022,0.01,-0.027,16.71,141.09,0
100806.0,-0.01,-0.03,0.019,-55.31,27.64,0
100811.0,0.021,0.008,0.007,19.62,-72.79,0
100816.0,0.005,-0.016,-0.001,-73.72,-96.9,0
100821.0,0.019,-0.006,-0.032,-9.81,-149.06,0
100826.0,0.002,0.022,0.026,40.82,-4.95,0
100831.0,-0.0,0.013,-0.01,51.55,179.1,0
100836.0,-0.012,-0.016,0.023,-31.21,27.42,0
100841.0,0.019,0.001,-0.022,1.57,-139.33,0
100846.0,0.007,-0.006,0.009,-29.19,-37.91,0
100851.0,-0.01,-0.021,0.05,-22.27,11.08,0
100856.0,0.005,-0.021,0.009,-63.97,-27.17,0
100861.0,-0.003,-0.028,0.014,-63.31,10.48,0
100866.0,0.002,0.001,-0.039,1.17,-176.71,0
100871.0,-0.01,0.032,-0.017,58.1,150.66,0
100876.0,-0.005,-0.006,0.007,-37.68,36.76,0
100881.0,0.009,0.001,0.016,2.44,-30.17,0
100886.0,-0.007,0.001,-0.003,5.76,111.91,0
100891.0,0.017,0.008,0.023,15.55,-35.37,0
100896.0,0.012,-0.002,0.031,-2.79,-21.13,0
100901.0,0.019,-0.002,-0.003,-4.75,-98.84,0
100906.0,0.002,-0.03,-0.005,-79.18,-157.32,0
100911.0,0.017,-0.011,-0.022,-22.01,-143.1,0
100916.0,0.014,0.032,0.019,53.76,-37.38,0
100921.0,0.005,-0.026,-0.029,-40.74,-171.02,0
100926.0,0.005,0.02,0.016,49.82,-15.95,0
100931.0,0.007,-0.006,0.014,-22.4,-26.96,0
100936.0,0.005,0.015,0.011,50.92,-22.08,0
100941.0,0.007,0.015,0.019,37.34,-20.69,0
100946.0,0.017,-0.035,-0.001,-64.69,-91.93,0
100951.0,-0.007,-0.011,-0.008,-46.32,136.52,0
100956.0,0.007,0.008,0.04,11.08,-9.92,0
100961.0,0.009,0.003,-0.003,17.92,-107.41,0
100966.0,0.012,0.006,-0.005,23.31,-114.36,0
100971.0,0.014,0.015,0.014,37.43,-45.82,0
100976.0,0.005,0.015,0.023,32.46,-11.2,0
100981.0,-0.015,-0.016,0.028,-26.73,27.28,0
100986.0,-0.0,0.01,0.021,26.3,0.44,0
100991.0,0.026,-0.004,-0.025,-6.35,-133.11,0
100996.0,-0.0,-0.026,-0.041,-31.75,179.78,0
101001.0,-0.005,-0.021,0.016,-50.77,16.98,0
101006.0,0.026,0.001,-0.008,1.67,-106.48,0
101011.0,-0.003,0.006,-0.003,55.05,139.15,0
101016.0,-0.005,-0.028,0.016,-58.77,16.98,0
101021.0,-0.003,0.006,-0.013,23.6,168.48,0
101026.0,0.014,0.008,-0.015,21.17,-136.41,0
101031.0,0.017,0.003,0.011,9.0,-55.49,0
101036.0,0.024,-0.009,0.023,-14.75,-45.49,0
101041.0,0.021,0.003,-0.003,8.41,-97.86,0
101046.0,-0.015,0.013,0.016,30.41,41.88,0
101051.0,-0.007,0.008,0.011,30.46,32.76,0
101056.0,0.019,0.003,-0.005,9.19,-105.73,0
101061.0,0.012,0.03,0.028,44.03,-22.75,0
101066.0,-0.01,0.006,-0.015,17.41,146.88,0
101071.0,-0.01,0.013,-0.025,25.84,158.33,0
101076.0,-0.015,-0.028,-0.072,-20.72,168.65,0
101081.0,-0.0,-0.018,0.023,-38.13,0.39,0
101086.0,-0.01,0.006,0.019,14.9,27.64,0
101091.0,0.024,0.015,-0.008,31.23,-108.03,0
101096.0,0.005,-0.026,0.035,-35.61,-7.46,0
101101.0,0.002,-0.014,0.023,-30.01,-5.46,0
101106.0,0.012,-0.028,-0.008,-63.18,-123.24,0
101111.0,0.002,0.032,0.019,59.6,-6.85,0
101116.0,0.002,-0.023,-0.005,-75.94,-157.32,0
101121.0,0.005,0.013,-0.013,43.71,-159.73,0
101126.0,0.017,0.008,-0.065,6.76,-165.72,0
101131.0,0.007,-0.021,-0.02,-44.76,-160.39,0
101136.0,-0.007,-0.023,-0.02,-47.73,159.57,0
101141.0,-0.005,-0.006,0.016,-20.65,16.98,0
101146.0,-0.003,-0.011,-0.027,-22.47,174.58,0
101151.0,0.031,0.015,-0.008,25.41,-104.04,0
101156.0,0.007,-0.002,0.009,-7.95,-37.91,0
101161.0,-0.01,0.001,-0.046,0.97,168.06,0
101166.0,0.005,-0.016,0.035,-24.12,-7.46,0
101171.0,-0.005,0.022,-0.025,41.8,168.58,0
101176.0,0.021,0.013,0.014,26.64,-57.16,0
101181.0,-0.0,0.018,0.026,34.26,0.35,0
101186.0,0.007,-0.002,-0.02,-4.36,-160.39,0
101191.0,-0.019,-0.014,0.016,-28.29,50.01,0
101196.0,-0.0,0.02,0.031,33.13,0.3,0
101201.0,-0.0,0.015,0.033,24.71,0.28,0
101206.0,0.002,-0.016,-0.01,-56.96,-167.57,0
101211.0,0.007,-0.002,0.019,-4.59,-20.69,0
101216.0,0.012,-0.021,-0.001,-60.32,-92.71,0
101221.0,-0.029,-0.035,-0.001,-50.55,91.11,0
101226.0,0.014,-0.023,-0.027,-37.27,-152.16,0
101231.0,-0.015,0.008,-0.013,22.59,130.78,0
101236.0,-0.007,0.027,0.009,66.8,39.15,0
101241.0,0.012,0.008,-0.02,19.15,-149.07,0
101246.0,0.014,0.001,0.009,2.72,-57.59,0
101251.0,0.014,-0.033,-0.003,-66.09,-101.75,0
101256.0,-0.003,-0.002,-0.022,-4.1,173.41,0
101261.0,0.009,0.018,-0.039,23.7,-166.38,0
101266.0,0.017,-0.002,-0.025,-3.09,-145.88,0
101271.0,-0.019,-0.014,0.011,-31.17,59.42,0
101276.0,0.007,0.006,0.014,19.83,-26.96,0
101281.0,0.009,-0.002,-0.025,-3.48,-158.98,0
101286.0,0.026,0.02,-0.008,36.16,-106.48,0
101291.0,0.014,-0.004,0.004,-15.07,-73.42,0
101296.0,-0.017,0.008,0.009,22.6,61.94,0
101301.0,0.012,0.006,-0.005,23.31,-114.36,0
101306.0,-0.01,0.013,-0.015,35.62,146.88,0
101311.0,0.021,-0.018,0.033,-25.04,-32.98,0
101316.0,0.012,0.02,0.021,39.64,-29.37,0
101321.0,-0.017,-0.009,-0.005,-26.32,107.54,0
101326.0,0.005,0.01,0.014,35.47,-18.54,0
101331.0,-0.022,-0.016,0.011,-33.06,62.27,0
101336.0,-0.003,-0.016,0.038,-22.87,3.87,0
101341.0,0.014,0.006,0.007,19.62,-65.0,0
101346.0,-0.0,-0.03,0.007,-77.68,1.38,0
101351.0,-0.015,0.003,-0.041,4.17,160.61,0
101356.0,-0.024,-0.002,-0.001,-3.79,91.33,0
101361.0,0.005,-0.014,-0.025,-28.55,-169.3,0
101366.0,0.007,0.008,0.031,14.28,-12.94,0
101371.0,-0.026,-0.028,-0.008,-45.34,106.29,0
101376.0,0.012,0.01,0.004,39.59,-70.3,0
101381.0,0.002,0.015,0.009,58.51,-13.92,0
101386.0,0.002,-0.014,0.047,-15.98,-2.7,0
101391.0,-0.026,-0.002,-0.001,-3.45,91.21,0
101396.0,0.012,0.027,0.009,61.29,-52.64,0
101401.0,0.007,-0.004,0.007,-22.46,-46.68,0
101406.0,0.009,-0.014,0.028,-24.55,-18.48,0
101411.0,0.024,-0.014,-0.017,-24.76,-126.06,0
101416.0,-0.012,-0.023,0.014,-51.55,41.31,0
101421.0,0.014,-0.021,-0.001,-55.58,-92.26,0
101426.0,0.024,-0.021,0.004,-40.66,-79.92,0
101431.0,0.012,-0.009,0.028,-16.03,-22.75,0
101436.0,0.009,0.008,0.019,20.95,-26.86,0
101441.0,0.007,-0.002,0.045,-2.01,-8.88,0
101446.0,-0.0,-0.023,-0.01,-66.34,179.1,0
101451.0,0.007,0.001,-0.008,4.37,-137.79,0
101456.0,-0.0,0.001,0.014,3.31,0.66,0
101461.0,-0.022,0.015,-0.003,34.69,97.75,0
101466.0,-0.007,-0.04,0.002,-79.26,75.97,0
101471.0,0.019,0.003,0.023,6.05,-39.09,0
101476.0,-0.017,0.006,0.026,10.27,33.28,0
101481.0,0.009,0.01,-0.003,46.43,-107.41,0
101486.0,0.014,0.018,0.028,29.1,-26.76,0
101491.0,-0.015,0.044,0.031,52.37,25.42,0
101496.0,0.009,0.006,0.031,9.91,-17.12,0
101501.0,-0.012,-0.011,0.009,-36.47,53.38,0
101506.0,-0.003,-0.006,0.009,-34.27,15.81,0
101511.0,0.019,-0.018,0.007,-42.38,-70.78,0
101516.0,-0.015,-0.011,0.026,-20.69,29.4,0
101521.0,0.026,-0.038,0.007,-54.25,-75.8,0
101526.0,-0.01,-0.011,0.007,-43.5,55.77,0
101531.0,-0.003,0.006,0.002,60.62,54.3,0
101536.0,0.038,0.001,0.007,1.18,-80.15,0
101541.0,-0.003,-0.002,0.062,-1.48,2.37,0
101546.0,-0.01,0.018,0.011,49.49,40.47,0
101551.0,0.007,0.001,-0.001,6.46,-94.56,0
101556.0,0.002,-0.004,-0.039,-5.85,-176.71,0
101561.0,-0.0,-0.002,0.004,-20.67,2.16,0
101566.0,-0.005,0.022,0.019,49.27,14.9,0
101571.0,-0.01,0.025,0.04,30.92,13.63,0
101576.0,0.021,-0.014,-0.032,-19.54,-145.98,0
101581.0,0.005,-0.021,0.028,-36.01,-9.33,0
101586.0,-0.007,-0.033,-0.001,-77.32,94.36,0
101591.0,0.009,-0.002,0.035,-2.5,-14.92,0
101596.0,-0.022,0.015,0.002,34.84,85.17,0
101601.0,-0.015,0.015,-0.029,24.88,153.62,0
101606.0,-0.003,-0.038,-0.005,-81.02,154.47,0
101611.0,-0.005,0.013,0.028,24.06,9.96,0
101616.0,0.005,0.008,-0.041,10.88,-173.6,0
101621.0,-0.005,0.001,-0.017,2.54,164.06,0
101626.0,0.002,-0.033,0.021,-57.18,-6.08,0
101631.0,0.012,0.01,0.033,16.51,-19.72,0
101636.0,0.017,-0.033,0.011,-58.38,-55.49,0
101641.0,0.012,-0.035,-0.001,-71.39,-92.71,0
101646.0,0.026,-0.018,-0.025,-27.11,-133.11,0
101651.0,0.012,0.022,-0.025,39.4,-154.26,0
101656.0,0.014,-0.033,0.004,-65.63,-73.42,0
101661.0,-0.005,-0.021,0.026,-38.33,10.87,0
101666.0,0.019,0.025,0.007,50.89,-70.78,0
101671.0,-0.019,-0.016,-0.015,-33.18,127.7,0
101676.0,0.002,-0.021,-0.022,-43.04,-174.23,0
101681.0,-0.017,0.008,0.033,12.16,27.17,0
101686.0,0.009,0.01,0.028,19.25,-18.48,0
101691.0,-0.015,0.015,-0.025,28.03,149.34,0
101696.0,-0.022,-0.011,-0.036,-14.75,149.24,0
101701.0,-0.007,0.001,0.002,6.02,75.97,0
101706.0,0.036,-0.004,0.007,-6.26,-79.51,0
101711.0,-0.041,0.025,0.007,30.87,80.79,0
101716.0,0.048,-0.006,0.002,-7.61,-87.8,0
101721.0,-0.026,0.006,0.019,9.79,54.94,0
101726.0,-0.003,-0.009,-0.005,-55.98,154.47,0
101731.0,0.026,0.018,0.014,30.68,-62.19,0
101736.0,0.002,-0.028,0.004,-80.28,-27.85,0
101741.0,0.009,0.008,0.016,23.07,-30.17,0
101746.0,-0.007,0.015,-0.02,35.78,159.57,0
101751.0,0.026,-0.021,0.016,-33.98,-58.25,0
101756.0,0.007,0.006,-0.025,12.36,-164.01,0
101761.0,0.005,0.003,0.007,21.56,-34.95,0
101766.0,0.014,-0.042,0.011,-66.69,-51.22,0
101771.0,-0.022,-0.004,-0.005,-10.12,103.84,0
101776.0,0.019,0.008,-0.013,19.33,-123.41,0
101781.0,0.002,0.001,0.016,2.79,-7.85,0
101786.0,0.012,-0.016,0.028,-27.59,-22.75,0
101791.0,-0.017,0.015,0.002,41.7,83.81,0
101796.0,0.019,-0.004,-0.029,-6.52,-147.04,0
101801.0,-0.031,0.025,-0.022,32.86,125.25,0
101806.0,0.019,-0.014,-0.013,-30.8,-123.41,0
101811.0,0.024,-0.023,-0.048,-23.21,-153.85,0
101816.0,0.036,0.018,-0.034,19.57,-133.63,0
101821.0,-0.017,0.003,0.028,5.55,30.99,0
101826.0,-0.003,-0.018,-0.048,-20.73,176.98,0
101831.0,-0.003,-0.002,-0.001,-31.41,102.36,0
101836.0,0.009,0.02,-0.005,61.51,-119.59,0
101841.0,-0.0,-0.011,-0.02,-29.54,179.54,0
101846.0,-0.026,0.015,-0.005,29.29,101.41,0
101851.0,0.019,-0.014,-0.017,-27.83,-132.36,0
101856.0,-0.0,0.03,0.035,39.87,0.26,0
101861.0,-0.0,-0.006,-0.005,-50.04,178.29,0
101866.0,0.021,0.006,-0.017,11.47,-129.0,0
101871.0,-0.01,-0.026,0.031,-38.52,17.67,0
101876.0,-0.0,-0.018,-0.003,-80.85,176.91,0
101881.0,-0.0,-0.018,-0.001,-88.18,164.08,0
101886.0,0.014,-0.03,0.004,-63.95,-73.42,0
101891.0,0.002,-0.018,-0.017,-46.43,-172.65,0
101896.0,-0.017,-0.004,-0.001,-13.26,91.9,0
101901.0,0.005,-0.021,-0.025,-39.77,-169.3,0
101906.0,-0.019,-0.002,0.009,-4.28,64.97,0
101911.0,-0.0,0.02,-0.017,49.04,179.47,0
101916.0,0.012,-0.014,0.019,-31.63,-32.43,0
101921.0,0.012,-0.002,0.04,-2.18,-16.4,0
101926.0,0.029,-0.002,-0.015,-2.83,-117.58,0
101931.0,0.009,0.003,0.014,10.81,-34.3,0
101936.0,0.026,0.013,0.014,23.34,-62.19,0
101941.0,0.005,0.006,0.002,48.29,-68.38,0
101946.0,-0.005,-0.018,0.023,-37.52,11.95,0
101951.0,0.024,0.003,0.007,7.37,-74.44,0
101956.0,-0.015,0.006,0.023,11.47,31.85,0
101961.0,-0.019,-0.009,0.021,-17.11,42.62,0
101966.0,0.002,-0.004,0.043,-5.35,-3.01,0
101971.0,0.014,-0.009,-0.008,-28.49,-118.59,0
101976.0,0.014,-0.011,0.002,-37.96,-82.64,0
101981.0,0.005,-0.004,0.05,-4.57,-5.32,0
101986.0,0.014,-0.004,-0.005,-14.73,-110.63,0
101991.0,0.038,-0.035,0.023,-38.13,-58.49,0
101996.0,0.009,-0.009,-0.02,-21.89,-154.47,0
102001.0,-0.015,0.015,-0.01,40.57,124.91,0
102006.0,-0.0,0.003,0.009,19.49,1.01,0
102011.0,-0.022,-0.011,-0.029,-17.04,143.46,0
102016.0,0.007,0.001,0.033,1.36,-12.03,0
102021.0,0.005,0.02,-0.017,48.06,-165.04,0
102026.0,-0.0,0.02,-0.008,68.79,178.82,0
102031.0,0.009,0.003,0.007,15.5,-54.88,0
102036.0,0.014,-0.004,0.016,-10.49,-41.25,0
102041.0,-0.003,0.025,-0.034,35.9,175.71,0
102046.0,-0.007,0.006,-0.001,37.19,94.36,0
102051.0,0.029,-0.002,-0.008,-3.09,-105.16,0
102056.0,0.007,-0.002,0.009,-7.95,-37.91,0
102061.0,0.017,0.032,0.035,39.26,-25.15,0
102066.0,-0.005,0.018,0.023,36.3,11.95,0
102071.0,-0.007,0.001,-0.025,1.79,163.32,0
102076.0,0.014,0.01,-0.001,36.12,-92.26,0
102081.0,-0.005,-0.002,0.009,-8.82,28.76,0
102086.0,0.024,0.018,-0.015,32.02,-122.11,0
102091.0,-0.026,0.037,-0.005,53.64,101.41,0
102096.0,0.024,0.01,0.007,22.79,-74.44,0
102101.0,-0.01,-0.028,-0.025,-46.65,158.33,0
102106.0,-0.026,-0.021,-0.008,-36.93,106.29,0
102111.0,0.019,-0.002,-0.041,-2.01,-155.28,0
102116.0,-0.007,-0.026,0.021,-48.95,19.28,0
102121.0,0.024,-0.009,0.028,-13.39,-40.17,0
102126.0,0.007,0.006,-0.025,12.36,-164.01,0
102131.0,-0.0,-0.009,0.014,-32.45,0.66,0
102136.0,-0.01,0.018,-0.003,59.91,106.88,0
102141.0,-0.005,-0.035,0.021,-58.45,13.27,0
102146.0,0.021,-0.009,0.04,-10.92,-28.05,0
102151.0,-0.031,0.01,-0.003,18.27,95.39,0
102156.0,0.029,0.027,-0.008,42.51,-105.16,0
102161.0,0.007,0.008,-0.022,18.99,-162.38,0
102166.0,-0.029,0.041,0.033,43.44,41.24,0
102171.0,0.045,-0.004,-0.017,-4.7,-110.91,0
102176.0,-0.031,-0.035,0.016,-44.91,62.62,0
102181.0,0.017,0.032,-0.029,43.48,-150.46,0
102186.0,-0.024,0.003,0.014,6.56,60.2,0
102191.0,-0.012,-0.009,-0.008,-31.38,122.55,0
102196.0,0.026,-0.035,-0.005,-52.73,-101.55,0
102201.0,-0.029,-0.016,-0.029,-21.2,135.39,0
102206.0,0.002,0.01,-0.008,52.16,-163.9,0
102211.0,-0.022,-0.011,0.004,-26.8,78.98,0
102216.0,0.012,-0.002,0.021,-3.79,-29.37,0
102221.0,0.012,0.022,-0.02,44.2,-149.07,0
102226.0,0.007,-0.026,-0.025,-45.06,-164.01,0
102231.0,-0.007,-0.002,-0.001,-12.23,94.36,0
102236.0,0.005,-0.035,0.004,-79.88,-47.59,0
102241.0,0.014,-0.035,-0.013,-61.66,-131.41,0
102246.0,0.012,-0.028,-0.005,-65.1,-114.36,0
102251.0,0.002,0.015,-0.005,69.08,-157.32,0
102256.0,-0.017,-0.004,0.019,-9.02,42.3,0
102261.0,0.009,0.015,-0.003,56.94,-107.41,0
102266.0,0.012,0.03,-0.022,49.67,-151.89,0
102271.0,-0.026,-0.021,0.016,-33.75,58.56,0
102276.0,0.002,0.003,0.004,33.72,-27.85,0
102281.0,0.002,0.013,0.009,53.96,-13.92,0
102286.0,-0.01,0.008,0.009,31.02,47.2,0
102291.0,0.021,-0.016,0.023,-26.73,-42.45,0
102296.0,0.012,0.022,0.009,56.38,-52.64,0
102301.0,0.005,-0.03,-0.027,-48.01,-170.24,0
102306.0,0.029,-0.011,-0.027,-15.89,-133.27,0
102311.0,-0.029,0.001,0.007,1.54,77.09,0
102316.0,0.005,0.001,-0.022,2.02,-168.17,0
102321.0,0.031,0.015,-0.003,25.99,-95.45,0
102326.0,-0.003,0.006,0.021,14.8,6.94,0
102331.0,-0.012,0.027,-0.001,65.89,92.64,0
102336.0,0.005,0.03,0.002,80.43,-68.38,0
102341.0,0.019,0.013,0.011,29.95,-59.0,0
102346.0,0.007,-0.009,0.033,-14.6,-12.03,0
102351.0,0.014,-0.016,-0.032,-24.69,-155.85,0
102356.0,0.007,-0.021,0.04,-26.98,-9.92,0
102361.0,-0.0,-0.021,0.016,-52.02,0.56,0
102366.0,0.026,-0.023,0.023,-33.4,-48.23,0
102371.0,0.021,0.006,-0.001,14.63,-91.5,0
102376.0,0.021,-0.014,0.011,-29.23,-61.92,0
102381.0,0.007,-0.028,-0.005,-72.46,-127.29,0
102386.0,-0.005,0.022,-0.02,47.71,165.91,0
102391.0,-0.0,0.01,0.014,36.92,0.66,0
102396.0,0.009,0.01,0.014,31.83,-34.3,0
102401.0,-0.015,-0.028,0.023,-45.42,31.85,0
102406.0,0.012,-0.018,0.019,-39.8,-32.43,0
102411.0,0.014,-0.004,-0.022,-8.63,-147.28,0
102416.0,-0.0,0.01,-0.046,12.7,179.8,0
102421.0,0.012,0.001,0.009,3.07,-52.64,0
102426.0,0.017,0.006,0.021,11.79,-38.34,0
102431.0,0.002,-0.021,0.028,-36.29,-4.54,0
102436.0,-0.024,-0.002,-0.017,-3.08,125.7,0
102441.0,0.019,0.013,0.028,20.6,-33.99,0
102446.0,0.005,0.006,0.016,18.34,-15.95,0
102451.0,-0.029,-0.006,0.031,-8.63,43.39,0
102456.0,-0.0,-0.009,0.028,-17.31,0.32,0
102461.0,-0.007,-0.038,-0.001,-78.89,94.36,0
102466.0,0.036,0.01,-0.034,11.86,-133.63,0
102471.0,-0.0,-0.009,0.014,-32.45,0.66,0
102476.0,0.021,-0.035,0.045,-35.21,-25.46,0
102481.0,-0.015,-0.004,-0.008,-13.63,118.06,0
102486.0,-0.0,-0.004,-0.02,-11.44,179.54,0
102491.0,0.012,-0.023,0.014,-51.87,-40.55,0
102496.0,-0.0,-0.002,0.007,-13.55,1.38,0
102501.0,0.002,-0.006,-0.003,-59.88,-142.89,0
102506.0,-0.01,0.018,-0.015,44.57,146.88,0
102511.0,-0.015,0.018,-0.008,46.85,118.06,0
102516.0,-0.005,-0.018,-0.036,-26.51,172.27,0
102521.0,-0.024,-0.004,-0.022,-6.96,132.53,0
102526.0,0.019,0.015,0.023,26.72,-39.09,0
102531.0,-0.0,-0.002,0.043,-2.15,0.22,0
102536.0,-0.019,-0.018,-0.027,-29.0,144.32,0
102541.0,-0.015,0.025,0.011,53.25,51.84,0
102546.0,-0.005,-0.016,0.016,-43.3,16.98,0
102551.0,0.002,-0.018,-0.036,-26.67,-176.49,0
102556.0,0.007,0.008,0.016,24.32,-23.44,0
102561.0,-0.01,-0.018,0.031,-29.78,17.67,0
102566.0,0.026,-0.002,-0.003,-3.47,-96.44,0
102571.0,0.012,-0.047,-0.036,-50.85,-162.06,0
102576.0,0.031,0.013,0.007,21.96,-77.93,0
102581.0,0.007,-0.004,0.009,-19.25,-37.91,0
102586.0,-0.003,0.003,0.016,11.01,8.96,0
102591.0,0.005,0.001,0.033,1.37,-7.99,0
102596.0,-0.019,0.018,-0.013,37.33,122.98,0
102601.0,-0.017,-0.006,0.066,-5.32,14.28,0
102606.0,0.007,-0.006,-0.02,-16.97,-160.39,0
102611.0,-0.012,-0.016,0.014,-40.97,41.31,0
102616.0,0.007,0.013,0.023,27.61,-16.72,0
102621.0,-0.007,-0.002,0.04,-2.24,10.37,0
102626.0,-0.012,-0.009,0.002,-35.59,81.4,0
102631.0,-0.007,0.008,0.031,14.25,13.51,0
102636.0,-0.005,0.001,0.016,2.7,16.98,0
102641.0,0.012,0.003,-0.017,8.66,-145.71,0
102646.0,0.024,-0.016,0.038,-19.69,-32.21,0
102651.0,0.024,0.003,0.007,7.37,-74.44,0
102656.0,0.024,0.008,-0.003,18.42,-97.08,0
102661.0,-0.003,-0.03,0.009,-72.83,15.81,0
102666.0,-0.007,-0.002,-0.005,-9.97,126.07,0
102671.0,-0.022,-0.028,-0.041,-30.93,152.25,0
102676.0,0.014,-0.009,-0.039,-11.98,-159.92,0
102681.0,-0.003,-0.006,-0.02,-17.81,172.62,0
102686.0,-0.015,0.013,0.028,21.94,27.28,0
102691.0,0.019,-0.006,0.021,-12.71,-42.14,0
102696.0,0.009,0.018,-0.022,36.15,-156.93,0
102701.0,-0.005,-0.026,-0.044,-30.17,173.53,0
102706.0,0.009,0.008,0.002,39.75,-78.97,0
102711.0,-0.017,-0.014,0.019,-28.35,42.3,0
102716.0,0.021,0.032,-0.003,55.93,-97.86,0
102721.0,0.012,-0.014,0.031,-22.49,-21.13,0
102726.0,0.014,0.034,-0.003,67.08,-101.75,0
102731.0,0.002,0.025,-0.01,67.24,-167.57,0
102736.0,0.019,0.013,0.023,22.97,-39.09,0
102741.0,-0.005,0.01,0.05,11.73,5.68,0
102746.0,0.005,0.006,-0.01,26.63,-155.46,0
102751.0,0.007,-0.004,0.04,-5.59,-9.92,0
102756.0,0.007,0.001,0.026,1.71,-15.24,0
102761.0,0.005,0.003,-0.075,2.44,-176.46,0
102766.0,0.002,0.001,0.009,4.91,-13.92,0
102771.0,-0.0,0.025,-0.01,67.72,179.1,0
102776.0,0.007,-0.011,0.014,-35.8,-26.96,0
102781.0,0.021,0.01,0.014,22.17,-57.16,0
102786.0,0.005,-0.021,0.002,-76.51,-68.38,0
102791.0,-0.019,-0.002,0.007,-4.47,71.07,0
102796.0,0.005,0.001,0.045,1.01,-5.88,0
102801.0,-0.01,-0.021,0.011,-54.14,40.47,0
102806.0,0.031,0.015,0.007,25.59,-77.93,0
102811.0,-0.015,0.008,-0.008,25.87,118.06,0
102816.0,0.005,0.003,-0.001,34.4,-96.9,0
102821.0,-0.017,-0.021,-0.013,-44.58,126.52,0
102826.0,0.009,0.003,0.009,13.76,-46.24,0
102831.0,0.021,-0.006,0.014,-14.08,-57.16,0
102836.0,-0.0,0.018,-0.017,45.39,179.47,0
102841.0,-0.005,0.008,0.011,32.69,23.44,0
102846.0,-0.007,0.006,-0.017,16.54,157.03,0
102851.0,0.012,-0.009,-0.013,-27.01,-136.69,0
102856.0,-0.003,0.022,0.047,25.24,3.09,0
102861.0,0.026,-0.014,0.004,-27.1,-80.82,0
102866.0,-0.003,-0.026,0.009,-69.85,15.81,0
102871.0,-0.0,0.022,0.007,73.49,1.38,0
102876.0,-0.031,-0.026,0.004,-38.97,82.3,0
102881.0,-0.012,0.001,0.002,3.72,81.4,0
102886.0,-0.005,-0.033,-0.008,-74.32,147.42,0
102891.0,0.019,0.008,0.016,17.73,-49.54,0
102896.0,-0.0,0.037,0.014,69.39,0.66,0
102901.0,0.005,-0.023,0.04,-29.8,-6.58,0
102906.0,-0.015,-0.004,0.007,-14.03,65.49,0
102911.0,0.005,-0.006,0.021,-16.54,-12.44,0
102916.0,0.002,0.008,-0.02,21.91,-173.53,0
102921.0,0.024,-0.006,-0.003,-14.92,-97.08,0
102926.0,0.007,0.008,0.057,7.92,-7.04,0
102931.0,-0.007,-0.033,-0.032,-45.17,166.95,0
102936.0,-0.0,-0.009,-0.034,-14.45,179.73,0
102941.0,-0.007,0.013,0.035,19.48,11.73,0
102946.0,0.005,0.02,-0.001,76.85,-96.9,0
102951.0,0.019,-0.009,-0.025,-15.81,-142.22,0
102956.0,0.014,0.018,0.052,18.01,-15.25,0
102961.0,0.029,-0.021,-0.027,-27.87,-133.27,0
102966.0,-0.012,0.003,0.002,14.58,81.4,0
102971.0,0.007,-0.016,-0.036,-23.25,-169.1,0
102976.0,0.019,-0.006,-0.015,-14.8,-128.16,0
102981.0,-0.003,-0.006,0.021,-16.8,6.94,0
102986.0,-0.003,-0.006,0.021,-16.8,6.94,0
102991.0,-0.005,-0.014,0.002,-68.75,69.65,0
102996.0,-0.007,-0.047,0.014,-71.63,28.01,0
103001.0,-0.003,-0.016,-0.008,-62.94,161.74,0
103006.0,0.019,-0.006,0.038,-8.59,-26.71,0
103011.0,-0.005,-0.004,0.002,-37.09,69.65,0
103016.0,0.014,-0.023,0.014,-49.44,-45.82,0
103021.0,0.002,-0.042,-0.015,-70.36,-171.48,0
103026.0,-0.0,0.001,-0.001,53.89,164.08,0
103031.0,-0.007,0.006,-0.015,18.57,153.81,0
103036.0,0.031,-0.009,0.016,-14.1,-62.38,0
103041.0,-0.019,-0.023,-0.022,-38.25,138.86,0
103046.0,0.005,0.008,0.045,10.02,-5.88,0
103051.0,0.021,-0.03,0.004,-54.29,-78.82,0
103056.0,-0.015,-0.011,-0.053,-11.45,164.74,0
103061.0,-0.015,-0.004,0.023,-8.25,31.85,0
103066.0,-0.0,0.008,0.023,18.85,0.39,0
103071.0,-0.01,-0.004,-0.008,-17.79,128.49,0
103076.0,-0.003,0.008,0.045,10.06,3.25,0
103081.0,0.009,-0.009,0.014,-27.71,-34.3,0
103086.0,0.012,-0.009,0.021,-20.03,-29.37,0
103091.0,-0.015,-0.002,0.045,-1.94,17.91,0
103096.0,0.005,-0.009,0.035,-13.83,-7.46,0
103101.0,0.007,-0.023,-0.005,-69.12,-127.29,0
103106.0,0.017,0.001,-0.015,2.05,-131.96,0
103111.0,0.014,-0.006,0.004,-23.3,-73.42,0
103116.0,0.005,0.027,0.019,54.77,-13.98,0
103121.0,0.012,-0.033,0.016,-58.5,-36.1,0
103126.0,-0.017,-0.026,0.007,-54.57,68.62,0
103131.0,0.002,0.018,0.031,29.81,-4.18,0
103136.0,-0.005,0.003,0.04,4.51,7.03,0
103141.0,-0.026,0.001,-0.01,1.61,110.94,0
103146.0,-0.007,-0.028,0.016,-57.51,24.38,0
103151.0,-0.005,-0.018,0.002,-73.96,69.65,0
103156.0,0.014,0.015,0.026,27.26,-28.86,0
103161.0,-0.007,0.008,-0.015,25.63,153.81,0
103166.0,0.024,0.018,-0.044,19.45,-151.42,0
103171.0,-0.0,0.013,0.004,71.67,2.16,0
103176.0,-0.007,0.022,0.007,66.13,47.95,0
103181.0,0.002,-0.006,0.026,-13.86,-4.95,0
103186.0,0.002,0.02,0.014,54.97,-9.19,0
103191.0,-0.007,-0.009,-0.017,-25.02,157.03,0
103196.0,-0.017,-0.002,0.028,-2.78,30.99,0
103201.0,0.029,-0.009,-0.032,-11.63,-137.96,0
103206.0,0.005,-0.016,0.016,-43.45,-15.95,0
103211.0,0.045,0.001,0.052,0.66,-41.02,0
103216.0,0.009,0.001,-0.032,1.38,-163.45,0
103221.0,-0.007,-0.016,-0.022,-34.42,161.63,0
103226.0,0.024,0.015,-0.058,13.59,-157.71,0
103231.0,0.012,0.01,0.043,13.23,-15.52,0
103236.0,-0.015,-0.014,-0.003,-42.47,101.49,0
103241.0,-0.0,0.01,-0.003,74.09,176.91,0
103246.0,-0.003,-0.009,-0.017,-26.63,171.61,0
103251.0,-0.003,-0.018,-0.036,-26.66,175.99,0
103256.0,-0.015,0.001,-0.025,1.6,149.34,0
103261.0,0.019,-0.004,-0.022,-7.8,-139.33,0
103266.0,0.012,0.006,0.021,13.06,-29.37,0
103271.0,-0.015,0.008,-0.017,19.45,140.01,0
103276.0,0.009,0.003,-0.027,6.39,-160.7,0
103281.0,-0.017,-0.014,-0.005,-37.4,107.54,0
103286.0,-0.01,0.013,0.014,37.08,35.19,0
103291.0,0.002,-0.002,-0.003,-23.32,-142.89,0
103296.0,-0.007,-0.014,-0.013,-43.05,149.63,0
103301.0,-0.0,0.03,-0.013,67.0,179.27,0
103306.0,0.014,-0.009,-0.022,-18.47,-147.28,0
103311.0,0.012,0.001,0.028,1.5,-22.75,0
103316.0,0.019,0.013,0.023,22.97,-39.09,0
103321.0,0.005,-0.021,0.004,-73.19,-47.59,0
103326.0,0.012,0.008,-0.02,19.15,-149.07,0
103331.0,0.019,-0.018,0.007,-42.38,-70.78,0
103336.0,0.017,0.003,0.016,7.84,-45.7,0
103341.0,-0.007,0.006,-0.008,27.64,136.52,0
103346.0,0.021,-0.018,-0.02,-32.25,-132.67,0
103351.0,0.021,-0.014,-0.01,-29.82,-115.36,0
103356.0,-0.003,-0.004,0.026,-8.76,5.66,0
103361.0,0.026,0.01,0.019,17.91,-54.61,0
103366.0,-0.012,0.013,0.009,40.19,53.38,0
103371.0,0.002,0.018,0.035,26.36,-3.62,0
103376.0,0.007,-0.023,0.031,-36.43,-12.94,0
103381.0,0.009,0.006,0.016,16.6,-30.17,0
103386.0,0.002,0.013,0.026,26.27,-4.95,0
103391.0,0.007,0.001,0.007,4.73,-46.68,0
103396.0,0.026,-0.004,0.033,-5.42,-38.46,0
103401.0,-0.026,0.006,0.004,11.76,80.93,0
103406.0,0.012,-0.014,0.031,-22.49,-21.13,0
103411.0,-0.005,-0.002,-0.003,-15.48,120.83,0
103416.0,0.005,0.003,0.019,9.46,-13.98,0
103421.0,-0.012,-0.004,0.002,-18.02,81.4,0
103426.0,-0.034,-0.004,0.038,-4.51,41.74,0
103431.0,0.002,0.001,0.002,15.43,-50.61,0
103436.0,-0.017,0.008,0.007,23.71,68.62,0
103441.0,0.029,-0.023,0.009,-37.69,-72.48,0
103446.0,0.002,0.025,0.016,56.53,-7.85,0
103451.0,-0.024,-0.011,-0.008,-23.82,107.81,0
103456.0,0.019,0.013,0.007,32.41,-70.78,0
103461.0,0.002,-0.03,-0.017,-60.07,-172.65,0
103466.0,0.009,0.018,0.004,59.55,-65.82,0
103471.0,-0.01,0.015,-0.001,57.25,93.29,0
103476.0,-0.007,-0.023,0.045,-26.95,9.28,0
103481.0,-0.007,0.02,0.009,59.77,39.15,0
103486.0,0.021,0.003,0.011,7.5,-61.92,0
103491.0,-0.022,0.01,0.033,14.73,33.37,0
103496.0,-0.003,-0.011,0.038,-16.45,3.87,0
103501.0,0.021,-0.023,0.009,-44.92,-67.14,0
103506.0,0.005,-0.018,0.023,-37.6,-11.2,0
103511.0,0.014,-0.018,-0.005,-50.41,-110.63,0
103516.0,0.005,0.015,-0.015,44.14,-162.77,0
103521.0,-0.015,0.001,-0.013,2.38,130.78,0
103526.0,0.024,-0.002,0.002,-3.83,-85.59,0
103531.0,0.009,0.013,0.011,40.8,-39.53,0
103536.0,-0.029,-0.038,0.014,-49.51,64.46,0
103541.0,-0.003,0.018,0.004,74.29,31.13,0
103546.0,0.017,0.001,-0.01,2.35,-121.41,0
103551.0,0.009,0.003,0.019,8.71,-26.86,0
103556.0,0.002,-0.004,0.026,-8.77,-4.95,0
103561.0,0.007,-0.035,-0.003,-77.76,-112.81,0
103566.0,0.007,0.025,0.028,40.44,-14.0,0
103571.0,0.009,0.032,0.016,59.59,-30.17,0
103576.0,0.014,-0.045,0.014,-66.1,-45.82,0
103581.0,-0.007,0.001,0.019,2.29,21.55,0
103586.0,0.026,-0.002,-0.013,-3.15,-115.58,0
103591.0,-0.005,0.008,0.011,32.69,23.44,0
103596.0,-0.022,-0.009,-0.013,-19.3,120.0,0
103601.0,-0.012,0.003,-0.027,6.17,155.72,0
103606.0,-0.007,0.015,-0.036,22.17,168.62,0
103611.0,0.021,-0.009,-0.008,-21.1,-109.9,0
103616.0,0.005,-0.004,0.023,-9.5,-11.2,0
103621.0,0.019,-0.002,-0.017,-3.55,-132.36,0
103626.0,0.009,-0.014,-0.001,-55.19,-93.4,0
103631.0,-0.012,0.015,-0.001,51.31,92.64,0
103636.0,0.009,-0.002,0.007,-7.89,-54.88,0
103641.0,-0.007,0.001,0.011,3.37,32.76,0
103646.0,-0.003,0.015,0.004,71.96,31.13,0
103651.0,0.002,-0.006,-0.01,-31.6,-167.57,0
103656.0,0.019,-0.009,0.009,-22.66,-64.6,0
103661.0,0.019,-0.023,0.016,-42.83,-49.54,0
103666.0,0.002,0.013,0.011,47.68,-11.08,0
103671.0,-0.0,0.01,-0.008,53.26,178.82,0
103676.0,0.014,0.006,-0.005,20.21,-110.63,0
103681.0,-0.012,0.015,0.026,28.02,25.2,0
103686.0,0.019,0.015,-0.027,24.73,-144.77,0
103691.0,0.005,-0.016,0.004,-68.56,-47.59,0
103696.0,0.021,0.008,0.026,13.4,-39.68,0
103701.0,0.005,-0.006,0.014,-23.68,-18.54,0
103706.0,-0.005,0.025,-0.034,35.69,171.74,0
103711.0,-0.003,0.01,-0.029,19.44,175.02,0
103716.0,-0.007,0.013,0.007,52.25,47.95,0
103721.0,0.002,-0.011,-0.015,-36.51,-171.48,0
103726.0,0.002,-0.021,0.026,-38.73,-4.95,0
103731.0,0.012,-0.006,0.002,-28.11,-81.17,0
103736.0,0.017,-0.038,0.016,-58.27,-45.7,0
103741.0,-0.005,0.03,-0.02,55.46,165.91,0
103746.0,0.026,-0.026,-0.02,-37.93,-126.98,0
103751.0,0.009,-0.004,-0.001,-22.93,-93.4,0
103756.0,-0.017,-0.033,0.021,-50.51,38.87,0
103761.0,0.017,-0.009,0.007,-26.16,-68.25,0
103766.0,-0.0,-0.033,0.031,-46.95,0.3,0
103771.0,0.017,0.006,0.014,14.51,-50.25,0
103776.0,-0.024,-0.004,0.007,-9.07,74.63,0
103781.0,0.012,-0.018,-0.003,-56.44,-104.04,0
103786.0,0.026,-0.014,-0.044,-14.92,-149.05,0
103791.0,-0.017,0.006,0.033,8.58,27.17,0
103796.0,0.007,0.013,0.009,48.17,-37.91,0
103801.0,-0.031,0.022,0.002,35.49,86.64,0
103806.0,0.014,-0.002,-0.013,-4.82,-131.41,0
103811.0,0.014,-0.006,-0.005,-22.81,-110.63,0
103816.0,-0.01,-0.004,-0.005,-19.76,118.78,0
103821.0,-0.0,-0.018,0.021,-41.17,0.44,0
103826.0,-0.0,0.006,0.016,19.03,0.56,0
103831.0,-0.022,0.018,0.014,34.31,57.54,0
103836.0,0.017,0.001,-0.032,1.28,-152.35,0
103841.0,-0.003,-0.016,0.031,-27.49,4.78,0
103846.0,0.012,0.003,0.011,11.0,-45.99,0
103851.0,-0.015,-0.018,0.021,-35.72,34.68,0
103856.0,-0.003,-0.002,0.007,-12.67,21.09,0
103861.0,0.012,0.03,-0.029,43.08,-158.04,0
103866.0,0.002,-0.014,0.009,-55.6,-13.92,0
103871.0,0.014,0.008,-0.015,21.17,-136.41,0
103876.0,-0.029,0.018,0.026,24.39,48.26,0
103881.0,0.019,-0.004,-0.001,-11.86,-91.69,0
103886.0,0.005,-0.014,-0.017,-37.12,-165.04,0
103891.0,0.031,0.006,0.004,10.13,-82.22,0
103896.0,0.021,0.006,0.011,12.98,-61.92,0
103901.0,0.019,0.022,-0.01,46.07,-118.09,0
103906.0,-0.029,0.001,0.004,1.57,81.67,0
103911.0,0.005,0.027,0.004,76.99,-47.59,0
103916.0,0.002,-0.026,0.007,-74.69,-18.64,0
103921.0,-0.0,0.001,-0.02,2.32,179.54,0
103926.0,0.033,0.008,-0.013,12.62,-110.59,0
103931.0,0.021,0.025,-0.003,48.89,-97.86,0
103936.0,0.005,0.025,0.019,52.24,-13.98,0
103941.0,0.029,0.008,-0.013,14.35,-113.68,0
103946.0,-0.015,-0.018,-0.039,-23.86,159.51,0
103951.0,0.024,0.025,-0.001,46.12,-91.35,0
103956.0,0.041,-0.002,-0.008,-2.21,-100.81,0
103961.0,0.019,-0.009,0.009,-22.66,-64.6,0
103966.0,0.019,-0.033,0.009,-57.28,-64.6,0
103971.0,-0.003,0.008,-0.022,19.73,173.41,0
103976.0,0.026,-0.04,0.016,-52.35,-58.25,0
103981.0,0.007,-0.006,0.007,-33.48,-46.68,0
103986.0,0.002,0.03,-0.001,85.54,-104.06,0
103991.0,0.005,-0.006,-0.008,-35.29,-149.13,0
103996.0,0.007,0.003,0.004,21.28,-58.95,0
104001.0,-0.005,-0.023,0.009,-66.04,28.76,0
104006.0,0.036,0.006,0.004,8.82,-83.25,0
104011.0,0.031,-0.006,0.007,-11.4,-77.93,0
104016.0,0.005,0.008,0.043,10.57,-6.21,0
104021.0,-0.019,-0.016,0.016,-32.34,50.01,0
104026.0,0.024,0.008,0.033,11.11,-35.81,0
104031.0,0.026,-0.028,0.031,-34.76,-40.58,0
104036.0,0.009,0.013,-0.022,27.99,-156.93,0
104041.0,-0.012,-0.004,0.019,-10.19,33.12,0
104046.0,0.005,-0.006,0.014,-23.68,-18.54,0
104051.0,0.005,0.001,-0.005,6.44,-139.12,0
104056.0,-0.007,0.01,0.009,41.74,39.15,0
104061.0,0.029,0.006,-0.001,11.06,-91.12,0
104066.0,0.002,-0.006,-0.005,-47.77,-157.32,0
104071.0,0.002,0.008,-0.013,32.09,-169.89,0
104076.0,-0.0,-0.023,0.038,-31.51,0.24,0
104081.0,-0.012,0.01,-0.008,35.79,122.55,0
104086.0,0.002,0.01,-0.005,60.81,-157.32,0
104091.0,-0.0,0.013,-0.017,36.4,179.47,0
104096.0,-0.015,-0.002,0.014,-4.55,46.45,0
104101.0,-0.01,-0.009,0.011,-30.34,40.47,0
104106.0,0.026,0.013,-0.003,25.86,-96.44,0
104111.0,0.009,0.015,0.009,49.31,-46.24,0
104116.0,-0.0,0.018,0.009,62.81,1.01,0
104121.0,-0.0,-0.059,-0.029,-63.62,179.69,0
104126.0,0.021,-0.009,0.014,-19.03,-57.16,0
104131.0,0.012,-0.011,-0.005,-40.75,-114.36,0
104136.0,-0.0,-0.009,-0.005,-58.64,178.29,0
104141.0,0.009,0.015,0.011,45.7,-39.53,0
104146.0,-0.012,-0.006,-0.034,-10.01,160.41,0
104151.0,-0.01,-0.011,-0.02,-26.94,153.72,0
104156.0,0.009,-0.006,-0.003,-32.9,-107.41,0
104161.0,-0.0,-0.009,0.021,-22.7,0.44,0
104166.0,0.012,0.001,0.026,1.61,-24.62,0
104171.0,-0.012,-0.011,0.021,-24.74,30.03,0
104176.0,-0.005,0.01,0.052,11.21,5.42,0
104181.0,-0.019,0.01,0.05,11.01,21.23,0
104186.0,0.029,0.027,0.031,32.96,-43.07,0
104191.0,0.007,-0.028,0.019,-54.57,-20.69,0
104196.0,0.009,-0.004,0.002,-22.58,-78.97,0
104201.0,0.019,-0.033,0.019,-50.91,-45.61,0
104206.0,0.005,-0.023,0.026,-41.47,-10.18,0
104211.0,0.007,-0.006,0.05,-7.25,-8.04,0
104216.0,0.009,-0.038,-0.01,-69.75,-137.11,0
104221.0,-0.017,0.015,0.023,27.72,35.89,0
104226.0,-0.01,0.006,-0.003,28.77,106.88,0
104231.0,-0.005,-0.011,0.007,-53.5,36.76,0
104236.0,-0.015,0.013,-0.005,39.52,110.21,0
104241.0,0.012,-0.004,-0.025,-8.35,-154.26,0
104246.0,0.002,0.013,0.033,21.13,-3.88,0
104251.0,0.009,0.018,0.004,59.55,-65.82,0
104256.0,0.002,-0.021,0.007,-71.38,-18.64,0
104261.0,0.009,-0.033,0.016,-60.2,-30.17,0
104266.0,-0.019,0.015,0.047,16.52,22.2,0
104271.0,0.031,-0.03,-0.032,-34.39,-135.66,0
104276.0,0.005,-0.018,-0.034,-28.09,-172.27,0
104281.0,-0.031,0.027,0.021,35.76,56.14,0
104286.0,0.021,0.003,-0.008,7.99,-109.9,0
104291.0,-0.015,-0.016,0.031,-25.25,25.42,0
104296.0,0.012,0.015,-0.058,14.36,-168.49,0
104301.0,0.007,-0.016,-0.001,-66.18,-94.56,0
104306.0,0.012,0.013,-0.003,46.36,-104.04,0
104311.0,0.002,-0.004,0.016,-13.71,-7.85,0
104316.0,-0.036,-0.014,0.021,-18.01,59.81,0
104321.0,0.053,-0.014,0.026,-13.06,-63.86,0
104326.0,-0.031,-0.009,0.021,-13.12,56.14,0
104331.0,0.021,-0.014,0.014,-28.06,-57.16,0
104336.0,-0.017,-0.009,0.002,-27.29,83.81,0
104341.0,0.014,-0.016,0.023,-30.26,-31.28,0
104346.0,-0.015,-0.054,-0.015,-69.01,135.78,0
104351.0,-0.015,-0.04,-0.008,-67.58,118.06,0
104356.0,0.014,-0.033,0.004,-65.63,-73.42,0
104361.0,-0.012,-0.002,-0.017,-4.32,144.99,0
104366.0,0.009,-0.004,-0.013,-14.28,-143.07,0
104371.0,0.012,0.02,0.043,24.32,-15.52,0
104376.0,0.012,0.02,-0.036,27.49,-162.06,0
104381.0,0.007,-0.033,-0.036,-41.38,-169.1,0
104386.0,-0.005,-0.004,-0.01,-19.48,153.98,0
104391.0,0.012,0.008,0.033,12.84,-19.72,0
104396.0,0.007,0.041,0.011,72.11,-31.61,0
104401.0,0.005,-0.004,-0.013,-16.63,-159.73,0
104406.0,0.012,-0.006,0.026,-12.69,-24.62,0
104411.0,0.012,-0.004,-0.005,-17.11,-114.36,0
104416.0,0.002,0.006,0.009,31.02,-13.92,0
104421.0,0.005,-0.004,-0.005,-29.43,-139.12,0
104426.0,0.002,-0.023,0.016,-54.76,-7.85,0
104431.0,-0.017,0.001,0.026,1.48,33.28,0
104436.0,0.005,-0.006,-0.029,-12.15,-171.02,0
104441.0,-0.007,-0.006,-0.008,-30.9,136.52,0
104446.0,0.019,0.006,-0.003,16.21,-98.84,0
104451.0,0.005,0.01,0.021,25.77,-12.44,0
104456.0,-0.012,-0.033,0.002,-69.45,81.4,0
104461.0,0.007,-0.016,-0.008,-56.78,-137.79,0
104466.0,-0.005,0.015,0.016,41.83,16.98,0
104471.0,0.012,0.013,-0.025,25.15,-154.26,0
104476.0,0.005,-0.009,0.021,-22.22,-12.44,0
104481.0,-0.01,0.006,0.004,27.76,66.52,0
104486.0,0.014,0.013,-0.001,41.93,-92.26,0
104491.0,-0.003,0.037,0.026,54.79,5.66,0
104496.0,-0.0,-0.014,0.028,-25.72,0.32,0
104501.0,0.026,0.001,-0.008,1.67,-106.48,0
104506.0,0.009,-0.011,-0.034,-17.54,-164.55,0
104511.0,-0.003,0.032,0.035,42.01,4.13,0
104516.0,-0.003,-0.009,0.028,-17.24,5.18,0
104521.0,-0.007,0.001,0.004,5.38,60.06,0
104526.0,0.017,-0.035,0.014,-58.41,-50.25,0
104531.0,-0.026,0.015,-0.02,24.66,126.65,0
104536.0,-0.019,0.003,-0.032,4.92,148.64,0
104541.0,0.002,0.003,-0.017,10.36,-172.65,0
104546.0,-0.005,0.013,0.009,51.15,28.76,0
104551.0,0.017,-0.004,-0.034,-6.01,-154.03,0
104556.0,0.005,0.003,-0.032,5.69,-171.69,0
104561.0,0.002,-0.006,0.033,-10.94,-3.88,0
104566.0,0.014,0.018,0.004,49.83,-73.42,0
104571.0,0.007,-0.004,0.011,-16.58,-31.61,0
104576.0,-0.019,-0.016,0.021,-29.23,42.62,0
104581.0,-0.01,-0.009,-0.001,-41.99,93.29,0
104586.0,0.009,-0.016,0.014,-43.68,-34.3,0
104591.0,0.005,0.013,-0.008,54.76,-149.13,0
104596.0,0.009,0.013,0.009,44.4,-46.24,0
104601.0,0.002,0.003,-0.01,17.09,-167.57,0
104606.0,-0.015,-0.011,-0.022,-22.9,146.7,0
104611.0,-0.007,0.001,0.043,1.06,9.79,0
104616.0,-0.0,0.013,0.021,31.31,0.44,0
104621.0,0.012,-0.006,0.031,-11.03,-21.13,0
104626.0,0.014,-0.03,-0.025,-46.96,-149.9,0
104631.0,0.033,-0.016,-0.005,-25.29,-99.11,0
104636.0,0.017,0.006,-0.022,11.42,-143.1,0
104641.0,0.002,0.013,-0.025,27.43,-174.79,0
104646.0,0.021,-0.028,0.002,-52.46,-85.1,0
104651.0,-0.012,0.001,0.028,1.49,23.3,0
104656.0,0.002,0.015,0.035,23.17,-3.62,0
104661.0,-0.007,-0.011,-0.063,-10.02,173.33,0
104666.0,0.007,-0.016,0.026,-30.86,-15.24,0
104671.0,0.033,0.02,-0.017,27.96,-117.44,0
104676.0,0.009,-0.009,-0.003,-41.65,-107.41,0
104681.0,-0.026,0.001,0.038,0.99,35.07,0
104686.0,-0.005,0.01,0.019,28.33,14.9,0
104691.0,-0.005,-0.016,0.009,-57.2,28.76,0
104696.0,0.014,-0.028,0.002,-62.85,-82.64,0
104701.0,0.009,-0.014,-0.015,-37.55,-147.75,0
104706.0,0.009,0.025,0.035,34.07,-14.92,0
104711.0,-0.0,0.008,-0.015,28.13,179.39,0
104716.0,-0.019,-0.021,0.026,-32.79,36.84,0
104721.0,0.024,-0.014,0.031,-19.31,-37.89,0
104726.0,0.012,0.013,0.019,30.1,-32.43,0
104731.0,-0.007,0.001,0.019,2.29,21.55,0
104736.0,0.007,0.025,-0.044,29.23,-170.86,0
104741.0,-0.022,-0.016,0.021,-27.86,45.96,0
104746.0,0.031,0.037,-0.032,39.65,-135.66,0
104751.0,0.005,-0.035,0.014,-67.48,-18.54,0
104756.0,-0.003,0.001,0.021,2.16,6.94,0
104761.0,-0.015,-0.004,-0.001,-15.35,92.21,0
104766.0,0.007,0.02,-0.015,50.42,-154.8,0
104771.0,0.007,-0.009,0.011,-33.23,-31.61,0
104776.0,-0.015,0.001,0.062,0.72,13.25,0
104781.0,0.007,0.022,0.016,51.69,-23.44,0
104786.0,0.005,0.006,0.021,14.57,-12.44,0
104791.0,0.026,-0.035,0.026,-43.71,-45.44,0
104796.0,-0.0,-0.03,0.011,-69.38,0.8,0
104801.0,-0.012,0.02,0.014,47.35,41.31,0
104806.0,0.017,-0.035,0.014,-58.41,-50.25,0
104811.0,-0.022,0.022,0.023,35.01,42.87,0
104816.0,0.009,0.001,-0.001,4.84,-93.4,0
104821.0,-0.015,-0.038,0.04,-41.3,19.89,0
104826.0,0.017,-0.009,0.019,-19.4,-41.76,0
104831.0,0.005,0.006,-0.008,31.77,-149.13,0
104836.0,-0.012,-0.018,0.014,-44.97,41.31,0
104841.0,0.024,-0.026,0.014,-42.88,-59.87,0
104846.0,-0.003,0.015,-0.027,29.3,174.58,0
104851.0,0.012,-0.011,0.009,-36.94,-52.64,0
104856.0,0.024,-0.033,0.04,-35.04,-30.64,0
104861.0,0.036,-0.018,0.023,-23.25,-56.82,0
104866.0,0.024,0.013,0.019,22.93,-51.98,0
104871.0,0.007,-0.03,-0.029,-45.2,-166.52,0
104876.0,-0.015,-0.026,0.019,-47.27,38.0,0
104881.0,0.007,0.02,0.016,48.49,-23.44,0
104886.0,-0.003,0.006,-0.027,11.68,174.58,0
104891.0,0.002,-0.009,0.011,-37.05,-11.08,0
104896.0,0.007,0.025,0.016,54.48,-23.44,0
104901.0,-0.031,0.008,0.055,7.24,29.85,0
104906.0,-0.0,-0.011,0.011,-44.39,0.8,0
104911.0,0.002,0.02,0.019,46.81,-6.85,0
104916.0,-0.0,-0.023,0.014,-59.18,0.66,0
104921.0,-0.003,-0.002,0.028,-3.23,5.18,0
104926.0,0.009,0.022,0.011,56.49,-39.53,0
104931.0,-0.0,0.003,0.002,60.02,4.97,0
104936.0,-0.012,-0.023,-0.015,-50.27,140.9,0
104941.0,-0.0,0.027,-0.025,47.92,179.63,0
104946.0,0.007,-0.011,0.026,-22.7,-15.24,0
104951.0,0.007,0.008,0.021,19.83,-18.5,0
104956.0,-0.0,-0.004,-0.003,-53.45,176.91,0
104961.0,-0.01,-0.011,0.038,-15.99,14.46,0
104966.0,0.005,-0.009,0.014,-31.09,-18.54,0
104971.0,0.019,-0.002,0.002,-4.78,-84.48,0
104976.0,0.033,-0.006,0.007,-10.63,-78.77,0
104981.0,-0.003,0.008,-0.02,21.87,172.62,0
104986.0,0.007,-0.018,-0.015,-48.06,-154.8,0
104991.0,0.017,0.013,0.007,35.54,-68.25,0
104996.0,0.014,0.013,0.028,22.03,-26.76,0
105001.0,0.002,-0.016,-0.02,-38.82,-173.53,0
105006.0,0.021,-0.023,0.011,-43.67,-61.92,0
105011.0,-0.005,-0.011,-0.027,-22.22,169.58,0
105016.0,0.017,-0.002,0.035,-2.34,-25.15,0
105021.0,-0.022,-0.014,-0.005,-31.25,103.84,0
105026.0,-0.005,0.001,-0.039,1.17,172.74,0
105031.0,0.017,-0.006,0.019,-14.37,-41.76,0
105036.0,0.026,-0.002,-0.029,-2.33,-138.21,0
105041.0,0.014,-0.002,-0.015,-4.43,-136.41,0
105046.0,-0.005,-0.011,0.021,-27.39,13.27,0
105051.0,-0.022,0.001,0.019,1.6,49.42,0
105056.0,0.009,0.015,-0.015,40.67,-147.75,0
105061.0,0.012,-0.028,0.007,-64.14,-60.72,0
105066.0,0.002,-0.004,-0.008,-26.35,-163.9,0
105071.0,-0.007,-0.026,0.009,-65.52,39.15,0
105076.0,-0.012,-0.009,0.043,-11.23,15.92,0
105081.0,-0.017,0.015,0.004,41.01,75.97,0
105086.0,-0.007,0.013,0.004,56.43,60.06,0
105091.0,-0.015,-0.011,-0.003,-37.01,101.49,0
105096.0,-0.012,-0.006,0.002,-27.49,81.4,0
105101.0,-0.007,0.013,0.035,19.48,11.73,0
105106.0,0.002,-0.006,0.014,-24.54,-9.19,0
105111.0,0.009,0.022,-0.003,66.17,-107.41,0
105116.0,0.002,-0.002,-0.005,-15.4,-157.32,0
105121.0,-0.0,-0.006,0.04,-9.04,0.23,0
105126.0,-0.012,-0.028,0.004,-65.3,70.78,0
105131.0,-0.019,0.003,0.002,9.34,84.57,0
105136.0,-0.005,-0.006,0.033,-10.84,8.54,0
105141.0,-0.012,0.025,0.007,60.81,61.37,0
105146.0,0.014,0.039,-0.008,67.52,-118.59,0
105151.0,0.019,-0.004,0.009,-10.75,-64.6,0
105156.0,-0.007,0.006,-0.02,14.87,159.57,0
105161.0,-0.015,-0.016,0.028,-26.73,27.28,0
105166.0,0.002,-0.004,-0.015,-14.81,-171.48,0
105171.0,0.012,-0.047,-0.008,-73.3,-123.24,0
105176.0,0.019,-0.052,-0.008,-68.43,-112.18,0
105181.0,0.012,-0.035,0.052,-33.31,-12.77,0
105186.0,0.024,-0.016,0.028,-23.41,-40.17,0
105191.0,0.005,-0.004,-0.025,-9.09,-169.3,0
105196.0,0.043,0.03,-0.025,30.85,-119.71,0
105201.0,-0.024,-0.006,-0.015,-12.69,121.77,0
105206.0,-0.01,0.01,0.035,15.8,15.4,0
105211.0,-0.003,-0.009,0.026,-18.72,5.66,0
105216.0,-0.007,-0.004,-0.008,-20.51,136.52,0
105221.0,0.012,-0.006,-0.008,-24.33,-123.24,0
105226.0,-0.005,0.001,0.028,1.6,9.96,0
105231.0,-0.007,-0.021,-0.025,-39.05,163.32,0
105236.0,0.005,0.003,0.021,8.45,-12.44,0
105241.0,0.017,-0.006,0.014,-16.47,-50.25,0
105246.0,-0.0,-0.002,0.004,-20.67,2.16,0
105251.0,0.019,0.03,0.043,32.37,-24.06,0
105256.0,0.026,-0.002,0.007,-3.38,-75.8,0
105261.0,-0.015,0.02,0.059,18.1,13.76,0
105266.0,0.026,0.027,-0.003,45.85,-96.44,0
105271.0,-0.003,0.006,-0.005,43.31,154.47,0
105276.0,-0.003,0.001,0.021,2.16,6.94,0
105281.0,-0.017,0.013,0.011,32.03,56.0,0
105286.0,0.031,0.022,-0.01,34.44,-108.13,0
105291.0,-0.017,-0.009,-0.029,-14.55,149.99,0
105296.0,0.005,-0.006,0.002,-52.05,-68.38,0
105301.0,-0.003,-0.016,-0.015,-46.51,170.29,0
105306.0,0.021,0.015,0.04,18.44,-28.05,0
105311.0,0.007,-0.004,-0.015,-13.6,-154.8,0
105316.0,0.014,-0.023,0.007,-55.89,-65.0,0
105321.0,-0.005,0.025,-0.005,73.59,137.23,0
105326.0,0.012,-0.009,0.007,-32.95,-60.72,0
105331.0,-0.019,-0.033,-0.01,-56.31,117.69,0
105336.0,-0.012,0.015,-0.003,50.53,103.68,0
105341.0,0.012,0.018,-0.015,42.69,-141.64,0
105346.0,-0.005,-0.026,0.021,-49.82,13.27,0
105351.0,0.007,0.01,-0.005,49.61,-127.29,0
105356.0,0.009,0.022,-0.005,64.14,-119.59,0
105361.0,-0.0,0.008,0.004,62.07,2.16,0
105366.0,0.007,-0.006,-0.032,-11.13,-167.5,0
105371.0,0.019,0.008,-0.001,22.78,-91.69,0
105376.0,0.014,-0.011,0.011,-31.52,-51.22,0
105381.0,-0.003,-0.018,0.007,-68.86,21.09,0
105386.0,0.021,-0.004,0.031,-6.11,-34.98,0
105391.0,0.014,-0.006,-0.027,-11.85,-152.16,0
105396.0,-0.015,0.003,0.033,5.06,23.78,0
105401.0,0.017,0.027,0.028,39.69,-30.51,0
105406.0,0.012,0.003,-0.025,6.69,-154.26,0
105411.0,-0.003,-0.009,-0.013,-34.47,168.48,0
105416.0,-0.007,0.02,-0.022,40.58,161.63,0
105421.0,-0.022,-0.018,0.028,-27.3,37.62,0
105426.0,0.014,-0.021,0.011,-48.71,-51.22,0
105431.0,-0.0,0.001,0.009,5.06,1.01,0
105436.0,-0.005,0.003,0.057,3.2,4.97,0
105441.0,0.009,0.003,0.009,13.76,-46.24,0
105446.0,0.014,-0.004,0.007,-14.28,-65.0,0
105451.0,-0.046,-0.023,0.016,-25.54,70.46,0
105456.0,0.021,-0.009,0.019,-17.21,-49.0,0
105461.0,-0.0,-0.014,0.026,-27.76,0.35,0
105466.0,-0.01,0.027,-0.039,34.11,165.94,0
105471.0,0.019,-0.004,0.004,-11.59,-77.45,0
105476.0,-0.007,0.008,-0.003,45.24,111.91,0
105481.0,0.017,-0.035,-0.008,-62.45,-115.0,0
105486.0,-0.003,-0.03,-0.027,-48.3,174.58,0
105491.0,0.017,0.015,-0.029,24.25,-150.46,0
105496.0,0.005,-0.014,-0.013,-45.45,-159.73,0
105501.0,-0.0,-0.038,-0.034,-47.74,179.73,0
105506.0,-0.019,0.022,0.002,49.04,84.57,0
105511.0,-0.01,0.02,0.031,31.88,17.67,0
105516.0,0.014,-0.006,-0.008,-21.54,-118.59,0
105521.0,0.017,0.02,-0.003,49.8,-100.09,0
105526.0,0.021,0.006,0.028,8.98,-37.21,0
105531.0,0.009,-0.016,-0.013,-45.52,-143.07,0
105536.0,0.019,0.015,-0.001,38.59,-91.69,0
105541.0,-0.019,0.006,0.002,16.06,84.57,0
105546.0,-0.0,0.02,-0.027,36.57,179.66,0
105551.0,0.007,-0.047,0.002,-81.24,-75.36,0
105556.0,0.005,0.015,0.002,71.82,-68.38,0
105561.0,0.014,-0.016,0.014,-38.86,-45.82,0
105566.0,-0.003,-0.011,0.043,-14.69,3.44,0
105571.0,0.014,0.003,-0.025,6.43,-149.9,0
105576.0,0.009,0.001,0.023,1.81,-21.94,0
105581.0,0.019,0.013,-0.005,32.91,-105.73,0
105586.0,-0.017,0.006,0.023,10.95,35.89,0
105591.0,0.031,0.003,0.002,5.88,-86.61,0
105596.0,0.009,-0.03,-0.003,-71.97,-107.41,0
105601.0,-0.003,0.02,0.004,76.09,31.13,0
105606.0,0.007,0.006,0.011,22.63,-31.61,0
105611.0,0.005,-0.026,-0.01,-66.43,-155.46,0
105616.0,0.019,-0.033,0.043,-35.08,-24.06,0
105621.0,-0.007,0.006,0.002,36.43,75.97,0
105626.0,0.007,0.02,-0.01,58.28,-145.28,0
105631.0,0.014,0.003,-0.005,11.88,-110.63,0
105636.0,-0.015,-0.049,0.009,-70.94,58.17,0
105641.0,0.017,0.001,0.057,0.77,-16.26,0
105646.0,-0.017,-0.004,0.031,-6.52,28.97,0
105651.0,0.024,0.006,-0.02,10.25,-129.66,0
105656.0,-0.05,-0.026,-0.032,-23.21,122.14,0
105661.0,0.029,0.006,-0.048,5.67,-149.47,0
105666.0,-0.029,0.001,-0.015,1.41,117.32,0
105671.0,0.014,0.025,-0.01,54.8,-125.51,0
105676.0,0.005,-0.002,-0.003,-16.21,-122.54,0
105681.0,0.009,-0.002,-0.008,-7.46,-129.42,0
105686.0,-0.005,-0.035,-0.015,-65.88,161.66,0
105691.0,-0.0,0.003,-0.063,2.91,179.85,0
105696.0,0.031,-0.004,0.023,-5.87,-52.94,0
105701.0,-0.01,0.01,-0.003,45.56,106.88,0
105706.0,-0.005,-0.004,0.031,-7.34,9.2,0
105711.0,0.005,0.008,0.009,38.22,-27.17,0
105716.0,0.007,-0.014,-0.032,-22.69,-167.5,0
105721.0,-0.012,0.006,-0.003,24.11,103.68,0
105726.0,-0.034,-0.014,0.028,-17.17,50.09,0
105731.0,-0.024,0.003,0.028,4.92,40.55,0
105736.0,-0.01,-0.004,-0.003,-21.41,106.88,0
105741.0,-0.005,-0.028,-0.041,-33.91,173.16,0
105746.0,0.005,0.008,0.009,38.22,-27.17,0
105751.0,-0.041,-0.016,0.002,-21.32,87.43,0
105756.0,0.002,-0.011,-0.027,-22.49,-175.25,0
105761.0,-0.015,-0.023,0.014,-49.11,46.45,0
105766.0,-0.007,-0.004,0.035,-6.31,11.73,0
105771.0,-0.01,-0.021,0.035,-29.5,15.4,0
105776.0,0.009,-0.009,-0.001,-42.94,-93.4,0
105781.0,0.024,-0.011,0.009,-23.72,-69.24,0
105786.0,-0.01,0.027,-0.005,67.74,118.78,0
105791.0,0.005,-0.021,0.021,-43.99,-12.44,0
105796.0,0.019,-0.006,0.031,-10.06,-31.86,0
105801.0,0.029,0.015,0.035,18.45,-38.94,0
105806.0,0.002,0.001,0.007,6.51,-18.64,0
105811.0,-0.007,-0.006,0.009,-28.77,39.15,0
105816.0,-0.01,-0.04,-0.008,-72.69,128.49,0
105821.0,-0.017,-0.014,0.014,-31.85,50.79,0
105826.0,-0.012,0.008,0.021,18.22,30.03,0
105831.0,-0.031,-0.03,0.002,-44.06,86.64,0
105836.0,-0.003,0.006,-0.005,43.31,154.47,0
105841.0,-0.031,-0.006,0.002,-11.52,86.64,0
105846.0,-0.0,-0.002,-0.008,-11.65,178.82,0
105851.0,0.029,0.015,0.033,19.17,-40.92,0
105856.0,-0.031,0.015,-0.017,22.98,118.97,0
105861.0,0.041,0.003,0.002,4.5,-87.41,0
105866.0,-0.015,-0.028,-0.013,-55.52,130.78,0
105871.0,-0.034,0.001,0.033,0.97,45.62,0
105876.0,0.045,0.015,0.002,18.48,-87.68,0
105881.0,-0.003,0.022,0.007,72.38,21.09,0
105886.0,0.005,0.001,-0.01,4.1,-155.46,0
105891.0,0.012,-0.011,-0.013,-32.98,-136.69,0
105896.0,0.012,0.025,-0.01,57.82,-130.64,0
105901.0,0.031,0.018,0.045,17.84,-34.57,0
105906.0,-0.026,0.001,0.014,1.53,62.48,0
105911.0,0.012,-0.002,0.014,-5.02,-40.55,0
105916.0,-0.0,-0.002,0.004,-20.67,2.16,0
105921.0,-0.003,0.01,-0.003,69.38,139.15,0
105926.0,-0.005,-0.014,0.009,-52.83,28.76,0
105931.0,-0.0,-0.021,0.002,-84.93,4.97,0
105936.0,0.019,-0.006,-0.008,-17.29,-112.18,0
105941.0,0.005,0.001,0.004,7.25,-47.59,0
105946.0,0.019,-0.028,-0.046,-29.28,-157.59,0
105951.0,0.007,-0.002,-0.008,-8.68,-137.79,0
105956.0,0.005,-0.016,0.002,-72.67,-68.38,0
105961.0,0.009,0.02,0.016,46.8,-30.17,0
105966.0,0.005,-0.047,-0.01,-76.69,-155.46,0
105971.0,0.012,0.008,-0.005,31.61,-114.36,0
105976.0,0.002,-0.018,0.007,-69.15,-18.64,0
105981.0,-0.0,-0.026,-0.027,-43.52,179.66,0
105986.0,-0.01,-0.004,-0.008,-17.79,128.49,0
105991.0,0.043,0.006,0.004,7.38,-84.38,0
105996.0,-0.0,-0.03,-0.025,-51.06,179.63,0
106001.0,-0.005,-0.006,0.004,-44.45,49.48,0
106006.0,-0.003,0.003,0.009,18.81,15.81,0
106011.0,0.005,-0.002,0.004,-14.28,-47.59,0
106016.0,0.017,-0.011,0.007,-32.01,-68.25,0
106021.0,0.019,-0.006,-0.029,-10.36,-147.04,0
106026.0,-0.0,-0.004,-0.01,-21.49,179.1,0
106031.0,0.026,0.006,0.04,6.65,-33.11,0
106036.0,-0.003,0.003,0.021,8.59,6.94,0
106041.0,-0.012,-0.018,-0.005,-54.16,113.79,0
106046.0,0.021,0.027,-0.013,47.59,-120.36,0
106051.0,0.005,0.01,-0.015,33.58,-162.77,0
106056.0,0.005,-0.014,0.019,-35.3,-13.98,0
106061.0,0.024,-0.006,0.023,-10.84,-45.49,0
106066.0,-0.022,-0.014,0.031,-19.89,35.38,0
106071.0,0.017,0.006,-0.001,18.59,-91.93,0
106076.0,-0.01,0.008,0.009,31.02,47.2,0
106081.0,-0.005,0.001,0.016,2.7,16.98,0
106086.0,0.036,-0.026,-0.005,-35.24,-98.51,0
106091.0,0.012,-0.023,0.026,-39.22,-24.62,0
106096.0,0.026,0.027,-0.003,45.85,-96.44,0
106101.0,-0.041,-0.014,0.023,-16.08,60.22,0
106106.0,-0.007,-0.009,0.009,-37.05,39.15,0
106111.0,-0.007,-0.009,0.004,-46.02,60.06,0
106116.0,-0.036,-0.002,-0.001,-2.53,90.89,0
106121.0,0.043,0.01,0.016,12.74,-69.33,0
106126.0,-0.024,-0.018,-0.003,-37.09,96.99,0
106131.0,0.019,-0.011,-0.003,-30.17,-98.84,0
106136.0,0.009,0.01,-0.005,43.77,-119.59,0
106141.0,0.012,0.003,0.023,6.95,-26.8,0
106146.0,0.029,0.008,0.035,9.96,-38.94,0
106151.0,-0.022,0.001,-0.003,2.09,97.75,0
106156.0,-0.005,-0.014,-0.008,-55.89,147.42,0
106161.0,0.014,0.013,0.004,40.75,-73.42,0
106166.0,0.014,0.013,0.009,37.19,-57.59,0
106171.0,0.017,0.01,0.011,27.25,-55.49,0
106176.0,0.026,0.018,0.028,24.54,-42.9,0
106181.0,0.017,-0.004,-0.001,-13.51,-91.93,0
106186.0,0.005,-0.002,0.021,-4.25,-12.44,0
106191.0,0.029,-0.038,0.014,-49.77,-64.21,0
106196.0,-0.01,-0.035,-0.005,-72.45,118.78,0
106201.0,0.019,-0.021,0.002,-47.4,-84.48,0
106206.0,-0.003,-0.023,0.014,-58.76,10.48,0
106211.0,0.002,0.003,-0.001,54.18,-104.06,0
106216.0,0.012,-0.023,-0.029,-36.23,-158.04,0
106221.0,0.012,-0.009,0.004,-34.98,-70.3,0
106226.0,-0.0,0.032,-0.005,80.49,178.29,0
106231.0,0.009,-0.009,0.007,-37.33,-54.88,0
106236.0,0.002,0.006,0.021,14.82,-6.08,0
106241.0,0.005,-0.002,-0.008,-10.04,-149.13,0
106246.0,-0.007,0.018,-0.003,65.74,111.91,0
106251.0,0.007,-0.004,0.002,-28.8,-75.36,0
106256.0,-0.007,0.039,-0.015,66.96,153.81,0
106261.0,0.005,0.008,-0.01,35.61,-155.46,0
106266.0,-0.0,-0.004,0.009,-23.87,1.01,0
106271.0,0.038,0.02,0.023,24.03,-58.49,0
106276.0,-0.01,0.018,0.011,49.49,40.47,0
106281.0,0.005,0.008,0.007,44.64,-34.95,0
106286.0,-0.0,-0.009,-0.008,-48.59,178.82,0
106291.0,0.002,-0.004,-0.008,-26.35,-163.9,0
106296.0,0.045,0.013,0.035,12.52,-52.05,0
106301.0,-0.053,0.027,0.019,25.85,70.61,0
106306.0,-0.048,0.061,-0.034,45.84,125.35,0
106311.0,0.055,-0.061,-0.048,-40.0,-131.42,0
106316.0,-0.115,-0.085,-0.025,-35.97,102.02,0
106321.0,0.086,-0.054,0.033,-30.5,-69.04,0
106326.0,0.06,-0.045,-0.07,-25.91,-139.54,0
106331.0,-0.067,0.041,0.047,26.79,54.84,0
106336.0,0.103,-0.014,-0.041,-6.98,-111.87,0
106341.0,-0.153,-0.014,-0.082,-4.46,118.12,0
106346.0,0.079,0.006,-0.044,3.55,-118.97,0
106351.0,-0.029,0.058,-0.036,51.39,141.62,0
106356.0,0.029,-0.006,0.038,-7.68,-37.12,0
106361.0,0.031,-0.009,0.038,-10.19,-39.36,0
106366.0,-0.017,0.025,0.002,55.48,83.81,0
106371.0,0.053,0.003,-0.022,3.21,-112.83,0
106376.0,-0.062,-0.009,0.019,-7.68,73.41,0
106381.0,0.031,0.001,-0.001,1.48,-91.04,0
106386.0,0.002,0.015,0.04,20.66,-3.19,0
106391.0,-0.003,-0.011,0.045,-13.94,3.25,0
106396.0,0.024,0.015,-0.015,28.37,-122.11,0
106401.0,-0.036,-0.033,-0.001,-42.21,90.89,0
106406.0,0.036,-0.026,-0.06,-19.99,-149.38,0
106411.0,-0.024,-0.014,0.028,-20.1,40.55,0
106416.0,0.033,0.01,0.047,10.16,-35.18,0
106421.0,-0.017,0.008,-0.017,18.24,135.67,0
106426.0,-0.022,-0.023,-0.01,-44.01,115.03,0
106431.0,0.014,-0.016,0.007,-45.52,-65.0,0
106436.0,-0.034,0.037,0.011,45.91,71.28,0
106441.0,-0.01,0.006,0.066,4.75,8.33,0
106446.0,-0.041,-0.057,0.05,-41.36,39.41,0
106451.0,0.031,0.022,0.026,29.01,-50.22,0
106456.0,-0.065,0.013,-0.089,6.61,143.99,0
106461.0,0.019,-0.126,0.011,-80.03,-59.0,0
106466.0,0.112,0.144,-0.022,51.59,-101.13,0
106471.0,-0.017,-0.186,-0.247,-36.89,176.08,0
106476.0,-0.029,0.132,0.342,21.12,4.83,0
106481.0,-0.359,0.147,-0.058,21.97,99.17,0
106486.0,-0.18,0.255,-0.458,27.37,158.57,0
106491.0,0.618,-0.109,0.325,-8.9,-62.24,0
106496.0,-0.127,-0.136,0.6,-12.47,11.95,0
106501.0,-0.041,-0.267,-0.396,-33.91,174.1,0
106506.0,0.213,0.875,0.21,71.12,-45.38,0
106511.0,-0.015,-0.289,0.165,-60.23,5.04,0
106516.0,0.053,-0.222,0.047,-72.33,-47.98,0
106521.0,-0.101,-0.454,-0.084,-73.86,129.95,0
106526.0,-0.082,0.346,-0.094,70.2,139.03,0
106531.0,0.098,-0.076,-0.142,-23.74,-145.35,0
106536.0,0.371,0.176,0.402,17.8,-42.72,0
106541.0,-0.515,-0.641,0.122,-50.46,76.72,0
106546.0,0.656,0.817,0.069,51.1,-84.01,0
106551.0,-0.498,-0.243,-0.393,-20.98,128.29,0
106556.0,0.062,0.262,0.071,70.15,-41.06,0
106561.0,-0.316,-0.629,-0.163,-60.49,117.32,0
106566.0,0.074,0.073,-0.209,18.15,-160.48,0
106571.0,-0.237,-0.315,-0.4,-34.11,149.36,0
106576.0,0.27,0.437,0.404,41.92,-33.79,0
106581.0,-0.249,-0.521,0.141,-61.23,60.55,0
106586.0,0.486,0.314,0.169,31.43,-70.78,0
106591.0,-0.285,-0.179,-0.075,-31.24,104.7,0
106596.0,0.244,0.391,0.205,50.8,-49.92,0
106601.0,-0.359,-0.339,-0.218,-38.89,121.3,0
106606.0,0.404,0.156,0.062,20.92,-81.33,0
106611.0,-0.455,-0.394,-0.199,-38.44,113.65,0
106616.0,0.311,0.405,0.234,46.16,-53.04,0
106621.0,-0.228,-0.282,0.004,-51.06,88.94,0
106626.0,0.376,0.267,0.354,27.32,-46.72,0
106631.0,-0.323,-0.449,-0.127,-52.27,111.51,0
106636.0,0.234,0.307,0.119,49.44,-63.06,0
106641.0,-0.237,-0.145,-0.104,-29.3,113.58,0
106646.0,0.321,0.228,0.224,30.25,-55.0,0
106651.0,-0.359,-0.397,-0.209,-43.66,120.17,0
106656.0,0.33,0.137,0.148,20.77,-65.88,0
106661.0,-0.254,-0.105,-0.013,-22.35,92.82,0
106666.0,0.285,0.31,0.162,43.38,-60.33,0
106671.0,-0.429,-0.287,-0.223,-30.66,117.5,0
106676.0,0.232,0.075,0.098,16.59,-67.19,0
106681.0,-0.194,-0.21,-0.218,-35.69,138.38,0
106686.0,0.232,0.314,0.179,47.01,-52.36,0
106691.0,-0.273,-0.313,-0.041,-48.56,98.59,0
106696.0,0.249,0.135,0.198,22.98,-51.47,0
106701.0,-0.232,-0.224,-0.156,-38.69,123.9,0
106706.0,0.323,0.279,0.253,34.16,-51.91,0
106711.0,-0.34,-0.215,-0.154,-29.9,114.33,0
106716.0,0.268,0.07,0.136,13.16,-63.11,0
106721.0,-0.261,-0.191,-0.197,-30.25,127.02,0
106726.0,0.23,0.247,0.27,34.91,-40.39,0
106731.0,-0.307,-0.229,-0.118,-34.89,111.03,0
106736.0,0.251,0.075,0.122,15.05,-64.18,0
106741.0,-0.244,-0.217,-0.218,-33.52,131.79,0
106746.0,0.199,0.154,0.162,30.99,-50.75,0
106751.0,-0.28,-0.083,-0.118,-15.27,112.81,0
106756.0,0.234,0.073,0.138,14.94,-59.47,0
106761.0,-0.175,-0.186,-0.154,-38.6,131.32,0
106766.0,0.182,0.178,0.126,38.8,-55.2,0
106771.0,-0.244,-0.172,-0.07,-34.02,105.98,0
106776.0,0.256,0.159,0.282,22.64,-42.24,0
106781.0,-0.163,-0.239,-0.108,-50.65,123.61,0
106786.0,0.311,0.247,0.263,31.28,-49.81,0
106791.0,-0.247,-0.152,-0.077,-30.52,107.37,0
106796.0,0.203,0.247,0.224,39.24,-42.17,0
106801.0,-0.134,-0.251,-0.144,-51.83,137.05,0
106806.0,0.201,0.19,0.155,36.81,-52.34,0
106811.0,-0.206,-0.239,-0.154,-42.86,126.73,0
106816.0,0.175,0.173,0.205,32.72,-40.38,0
106821.0,-0.141,-0.157,-0.171,-35.36,140.33,0
106826.0,0.223,0.228,0.229,35.54,-44.14,0
106831.0,-0.182,-0.136,-0.053,-35.57,106.29,0
106836.0,0.256,0.202,0.236,30.09,-47.27,0
106841.0,-0.151,-0.306,-0.101,-59.27,123.81,0
106846.0,0.275,0.279,0.272,35.73,-45.29,0
106851.0,-0.129,-0.294,-0.053,-64.52,112.35,0
106856.0,0.227,0.3,0.244,42.01,-43.01,0
106861.0,-0.06,-0.272,0.021,-76.85,70.72,0
106866.0,0.254,0.281,0.239,38.88,-46.72,0
106871.0,-0.108,-0.2,-0.139,-48.65,142.26,0
106876.0,0.151,0.154,0.177,33.56,-40.47,0
106881.0,-0.086,-0.157,-0.082,-52.86,133.51,0
106886.0,0.263,0.235,0.059,41.11,-77.3,0
106891.0,-0.196,-0.207,-0.075,-44.62,110.84,0
106896.0,0.136,0.159,0.165,36.61,-39.62,0
106901.0,-0.036,-0.169,-0.142,-49.14,165.73,0
106906.0,0.143,0.147,0.124,37.76,-49.18,0
106911.0,-0.137,-0.15,-0.068,-44.55,116.32,0
106916.0,0.122,0.221,0.126,51.54,-43.99,0
106921.0,-0.103,-0.298,-0.099,-64.44,133.75,0
106926.0,0.211,0.36,0.052,58.93,-76.1,0
106931.0,-0.11,-0.351,-0.048,-71.07,113.71,0
106936.0,0.148,0.329,0.215,51.55,-34.6,0
106941.0,-0.046,-0.289,-0.068,-74.23,145.97,0
106946.0,0.165,0.324,0.078,60.58,-64.58,0
106951.0,-0.149,-0.207,-0.161,-43.45,137.29,0
106956.0,0.172,0.228,0.181,42.38,-43.51,0
106961.0,-0.05,-0.313,-0.104,-69.79,154.02,0
106966.0,0.127,0.413,0.035,72.31,-74.41,0
106971.0,-0.062,-0.188,-0.075,-62.65,140.15,0
106976.0,0.076,0.286,0.145,60.09,-27.72,0
106981.0,-0.0,-0.279,-0.046,-80.64,179.8,0
106986.0,0.079,0.3,0.124,63.92,-32.46,0
106991.0,-0.026,-0.21,-0.099,-64.03,164.98,0
106996.0,0.029,0.331,0.129,68.29,-12.51,0
107001.0,-0.041,-0.27,-0.173,-56.62,166.71,0
107006.0,0.282,0.437,0.145,53.96,-62.74,0
107011.0,0.026,-0.234,-0.235,-44.66,-173.65,0
107016.0,0.074,0.456,-0.036,79.73,-116.22,0
107021.0,-0.003,-0.279,-0.206,-53.53,179.29,0
107026.0,0.172,0.271,0.09,54.36,-62.3,0
107031.0,-0.029,-0.318,-0.223,-54.68,172.63,0
107036.0,-0.017,0.298,0.134,65.67,7.22,0
107041.0,0.012,-0.38,-0.08,-78.04,-171.56,0
107046.0,0.294,0.338,0.11,47.13,-69.58,0
107051.0,-0.019,-0.464,-0.197,-66.89,174.4,0
107056.0,0.031,0.322,0.086,74.19,-19.88,0
107061.0,0.06,-0.349,-0.29,-49.65,-168.38,0
107066.0,0.11,0.319,0.04,69.86,-69.95,0
107071.0,0.062,-0.413,-0.175,-65.77,-160.5,0
107076.0,0.05,0.255,0.09,67.9,-29.0,0
107081.0,-0.024,-0.332,-0.132,-67.96,169.67,0
107086.0,0.227,0.338,0.177,49.61,-52.15,0
107091.0,-0.338,-0.385,-0.187,-44.89,119.01,0
107096.0,0.261,0.197,0.071,36.1,-74.72,0
107101.0,-0.331,-0.287,-0.23,-35.41,124.88,0
107106.0,0.225,0.279,0.119,47.58,-62.09,0
107111.0,-0.343,-0.389,-0.163,-45.74,115.5,0
107116.0,0.361,0.226,0.136,30.33,-69.39,0
107121.0,-0.359,-0.27,-0.12,-35.45,108.51,0
107126.0,0.254,0.245,0.145,39.96,-60.16,0
107131.0,-0.343,-0.322,-0.173,-40.04,116.79,0
107136.0,0.225,0.13,0.062,29.15,-74.66,0
107141.0,-0.338,-0.265,-0.238,-32.69,125.12,0
107146.0,0.261,0.271,0.134,42.8,-62.89,0
107151.0,-0.424,-0.354,-0.139,-38.39,108.21,0
107156.0,0.29,0.312,0.141,44.11,-64.08,0
107161.0,-0.347,-0.289,-0.238,-34.47,124.37,0
107166.0,0.256,0.233,0.093,40.55,-70.07,0
107171.0,-0.264,-0.411,-0.154,-53.41,120.27,0
107176.0,0.199,0.094,0.098,23.06,-63.82,0
107181.0,-0.287,-0.136,-0.192,-21.43,123.75,0
107186.0,0.261,0.245,0.22,35.7,-49.89,0
107191.0,-0.347,-0.287,-0.113,-38.11,108.04,0
107196.0,0.278,0.125,0.114,22.65,-67.61,0
107201.0,-0.299,-0.203,-0.154,-31.06,117.18,0
107206.0,0.239,0.235,0.114,41.6,-64.45,0
107211.0,-0.29,-0.229,-0.206,-32.77,125.46,0
107216.0,0.234,0.099,0.198,17.87,-49.8,0
107221.0,-0.275,-0.21,-0.171,-32.93,121.76,0
107226.0,0.299,0.221,0.153,33.36,-62.96,0
107231.0,-0.364,-0.179,-0.18,-23.75,116.32,0
107236.0,0.201,0.104,0.1,24.81,-63.54,0
107241.0,-0.261,-0.231,-0.204,-34.93,128.01,0
107246.0,0.189,0.25,0.162,45.08,-49.35,0
107251.0,-0.347,-0.272,-0.216,-33.64,121.88,0
107256.0,0.218,0.166,0.057,36.42,-75.35,0
107261.0,-0.24,-0.212,-0.13,-37.92,118.46,0
107266.0,0.203,0.18,0.114,37.71,-60.65,0
107271.0,-0.338,-0.217,-0.154,-30.32,114.48,0
107276.0,0.239,0.075,0.157,14.68,-56.65,0
107281.0,-0.17,-0.224,-0.137,-45.75,128.85,0
107286.0,0.179,0.245,0.177,44.22,-45.45,0
107291.0,-0.275,-0.196,-0.094,-33.89,108.83,0
107296.0,0.246,0.14,0.189,24.23,-52.58,0
107301.0,-0.177,-0.196,-0.135,-41.29,127.21,0
107306.0,0.213,0.195,0.169,35.59,-51.49,0
107311.0,-0.254,-0.251,-0.142,-40.75,119.18,0
107316.0,0.256,0.154,0.203,25.24,-51.6,0
107321.0,-0.113,-0.21,-0.089,-55.61,128.35,0
107326.0,0.244,0.176,0.28,25.32,-41.12,0
107331.0,-0.206,-0.231,-0.06,-47.14,106.34,0
107336.0,0.249,0.183,0.222,28.72,-48.25,0
107341.0,-0.173,-0.176,-0.058,-44.09,108.59,0
107346.0,0.225,0.219,0.203,35.82,-47.94,0
107351.0,-0.252,-0.138,-0.168,-24.53,123.76,0
107356.0,0.23,0.101,0.172,19.46,-53.2,0
107361.0,-0.125,-0.179,-0.111,-47.0,131.6,0
107366.0,0.199,0.197,0.248,31.79,-38.63,0
107371.0,-0.182,-0.181,-0.118,-39.86,122.91,0
107376.0,0.206,0.214,0.227,34.93,-42.2,0
107381.0,-0.129,-0.327,-0.08,-65.09,121.58,0
107386.0,0.172,0.326,0.189,51.96,-42.4,0
107391.0,-0.161,-0.186,-0.094,-44.99,120.33,0
107396.0,0.239,0.204,0.21,32.68,-48.71,0
107401.0,-0.117,-0.258,-0.065,-62.47,119.03,0
107406.0,0.254,0.3,0.229,41.27,-47.89,0
107411.0,-0.149,-0.279,-0.123,-55.4,129.54,0
107416.0,0.208,0.238,0.241,36.74,-40.79,0
107421.0,-0.161,-0.253,-0.017,-57.45,96.16,0
107426.0,0.184,0.307,0.22,46.98,-39.98,0
107431.0,-0.146,-0.263,-0.178,-48.77,140.56,0
107436.0,0.127,0.204,0.141,47.17,-42.01,0
107441.0,-0.115,-0.227,-0.118,-53.99,135.69,0
107446.0,0.139,0.238,0.165,47.85,-40.11,0
107451.0,-0.161,-0.169,-0.125,-39.74,127.91,0
107456.0,0.206,0.231,0.203,38.59,-45.39,0
107461.0,-0.12,-0.236,-0.065,-59.99,118.54,0
107466.0,0.206,0.235,0.191,39.99,-47.13,0
107471.0,-0.029,-0.27,0.026,-81.83,48.26,0
107476.0,0.132,0.379,0.193,58.33,-34.22,0
107481.0,-0.036,-0.397,-0.094,-75.77,158.99,0
107486.0,0.211,0.307,0.208,46.09,-45.38,0
107491.0,-0.139,-0.26,-0.127,-54.06,132.51,0
107496.0,0.127,0.31,0.124,60.21,-45.64,0
107501.0,-0.101,-0.205,-0.092,-56.43,132.27,0
107506.0,0.208,0.252,0.208,40.62,-45.06,0
107511.0,-0.079,-0.301,-0.104,-66.58,142.59,0
107516.0,0.086,0.298,0.196,54.31,-23.72,0
107521.0,-0.007,-0.207,-0.005,-87.49,126.07,0
107526.0,0.143,0.35,0.021,67.51,-81.68,0
107531.0,-0.086,-0.231,-0.106,-59.44,140.81,0
107536.0,0.165,0.286,0.167,50.58,-44.66,0
107541.0,-0.015,-0.363,-0.082,-77.09,169.95,0
107546.0,0.115,0.355,0.189,58.13,-31.32,0
107551.0,-0.005,-0.219,0.007,-87.84,36.76,0
107556.0,0.127,0.312,0.26,47.14,-25.95,0
107561.0,0.067,-0.332,0.076,-73.04,-41.33,0
107566.0,0.153,0.381,0.069,66.25,-65.77,0
107571.0,-0.055,-0.236,-0.068,-69.72,140.75,0
107576.0,0.115,0.3,0.131,59.86,-41.19,0
107581.0,-0.079,-0.289,-0.068,-70.18,130.49,0
107586.0,0.05,0.314,0.033,79.2,-56.67,0
107591.0,-0.074,-0.191,-0.092,-58.27,140.9,0
107596.0,-0.024,0.24,0.069,73.1,19.29,0
107601.0,-0.053,-0.287,-0.171,-58.07,162.79,0
107606.0,0.352,0.403,0.126,47.16,-70.25,0
107611.0,-0.031,-0.148,-0.183,-38.56,170.27,0
107616.0,0.002,0.329,0.112,71.19,-1.14,0
107621.0,-0.003,-0.248,-0.175,-54.76,179.17,0
107626.0,0.06,0.19,0.102,58.04,-30.24,0
107631.0,0.091,-0.294,-0.211,-51.94,-156.74,0
107636.0,0.038,0.434,0.05,81.79,-37.5,0
107641.0,0.026,-0.15,-0.252,-30.64,-174.07,0
107646.0,0.232,0.247,0.04,46.41,-80.19,0
107651.0,0.117,-0.37,-0.211,-56.88,-150.99,0
107656.0,-0.019,0.398,0.122,72.83,9.03,0
107661.0,0.072,-0.289,-0.171,-57.37,-157.21,0
107666.0,0.009,0.267,0.1,69.35,-5.38,0
107671.0,0.108,-0.44,-0.183,-64.28,-149.48,0
107676.0,-0.091,0.231,0.129,55.63,35.3,0
107681.0,0.12,-0.196,-0.293,-31.74,-157.78,0
107686.0,0.17,0.259,0.011,56.73,-86.16,0
107691.0,-0.326,-0.351,-0.111,-45.58,108.77,0
107696.0,0.354,0.144,0.162,20.34,-65.39,0
107701.0,-0.359,-0.282,-0.183,-34.96,116.93,0
107706.0,0.361,0.355,0.184,41.22,-63.04,0
107711.0,-0.419,-0.389,-0.142,-41.35,108.69,0
107716.0,0.263,0.252,0.114,41.31,-66.52,0
107721.0,-0.299,-0.275,-0.242,-35.48,128.99,0
107726.0,0.194,0.3,0.076,55.25,-68.57,0
107731.0,-0.362,-0.38,-0.288,-39.41,128.52,0
107736.0,0.278,0.118,0.107,21.65,-68.89,0
107741.0,-0.244,-0.193,-0.08,-36.92,108.04,0
107746.0,0.232,0.183,0.145,33.71,-57.92,0
107751.0,-0.371,-0.217,-0.238,-26.22,122.62,0
107756.0,0.313,0.14,0.143,22.06,-65.47,0
107761.0,-0.287,-0.21,-0.185,-31.55,122.75,0
107766.0,0.196,0.216,0.117,43.45,-59.24,0
107771.0,-0.264,-0.287,-0.123,-44.59,114.96,0
107776.0,0.213,0.149,0.186,27.82,-48.83,0
107781.0,-0.182,-0.241,-0.139,-46.42,127.44,0
107786.0,0.239,0.288,0.198,42.84,-50.37,0
107791.0,-0.314,-0.272,-0.144,-38.24,114.68,0
107796.0,0.27,0.056,0.076,11.25,-74.29,0
107801.0,-0.23,-0.21,-0.115,-39.2,116.66,0
107806.0,0.213,0.233,0.222,37.14,-43.79,0
107811.0,-0.275,-0.198,-0.159,-31.91,119.93,0
107816.0,0.273,0.14,0.148,24.23,-61.54,0
107821.0,-0.223,-0.255,-0.08,-47.19,109.65,0
107826.0,0.158,0.247,0.107,52.36,-55.82,0
107831.0,-0.278,-0.322,-0.281,-39.23,135.29,0
107836.0,0.167,0.197,0.138,42.23,-50.44,0
107841.0,-0.17,-0.253,-0.104,-51.79,121.31,0
107846.0,0.158,0.243,0.131,49.77,-50.29,0
107851.0,-0.247,-0.164,-0.127,-30.62,117.32,0
107856.0,0.273,0.128,0.196,20.82,-54.33,0
107861.0,-0.189,-0.167,-0.058,-40.11,107.04,0
107866.0,0.211,0.18,0.201,31.81,-46.39,0
107871.0,-0.237,-0.198,-0.104,-37.41,113.58,0
107876.0,0.227,0.164,0.201,28.36,-48.58,0
107881.0,-0.189,-0.337,-0.104,-57.36,118.67,0
107886.0,0.172,0.245,0.15,46.99,-48.89,0
107891.0,-0.309,-0.176,-0.218,-24.99,125.26,0
107896.0,0.175,0.197,0.093,44.91,-62.01,0
107901.0,-0.235,-0.289,-0.218,-42.02,132.93,0
107906.0,0.175,0.221,0.189,40.7,-42.8,0
107911.0,-0.292,-0.174,-0.197,-26.28,123.97,0
107916.0,0.201,0.233,0.064,47.85,-72.31,0
107921.0,-0.196,-0.356,-0.147,-55.44,126.73,0
107926.0,0.256,0.202,0.22,30.9,-49.37,0
107931.0,-0.211,-0.263,-0.166,-44.39,128.17,0
107936.0,0.187,0.207,0.114,43.36,-58.5,0
107941.0,-0.026,-0.169,0.026,-77.68,45.79,0
107946.0,0.282,0.137,0.347,17.07,-39.17,0
107951.0,-0.125,-0.212,-0.027,-59.01,102.18,0
107956.0,0.23,0.164,0.179,29.33,-52.07,0
107961.0,-0.053,-0.16,-0.068,-61.74,141.99,0
107966.0,0.172,0.29,0.198,47.89,-40.99,0
107971.0,-0.223,-0.279,-0.144,-46.46,122.91,0
107976.0,0.215,0.262,0.215,40.71,-45.05,0
107981.0,-0.053,-0.327,-0.132,-66.48,158.22,0
107986.0,0.225,0.314,0.27,41.82,-39.79,0
107991.0,-0.115,-0.289,0.062,-65.68,61.81,0
107996.0,0.196,0.231,0.167,41.83,-49.59,0
108001.0,-0.125,-0.198,-0.092,-52.0,126.29,0
108006.0,0.17,0.336,0.148,56.17,-48.95,0
108011.0,-0.146,-0.241,-0.135,-50.49,132.64,0
108016.0,0.155,0.125,0.117,32.8,-53.09,0
108021.0,-0.091,-0.308,-0.13,-62.75,144.93,0
108026.0,0.163,0.319,0.181,52.65,-41.88,0
108031.0,-0.151,-0.196,-0.104,-46.88,124.43,0
108036.0,0.191,0.398,0.203,54.99,-43.32,0
108041.0,-0.117,-0.342,-0.034,-70.3,106.18,0
108046.0,0.261,0.336,0.22,44.57,-49.89,0
108051.0,-0.122,-0.306,-0.106,-62.11,130.9,0
108056.0,0.151,0.343,0.191,54.67,-38.27,0
108061.0,-0.029,-0.301,0.004,-84.46,81.67,0
108066.0,0.199,0.346,0.213,49.91,-43.05,0
108071.0,-0.053,-0.27,-0.051,-74.79,133.9,0
108076.0,0.112,0.372,0.15,63.23,-36.79,0
108081.0,-0.067,-0.358,-0.19,-60.68,160.49,0
108086.0,0.069,0.295,0.098,67.94,-35.36,0
108091.0,-0.034,-0.287,-0.046,-78.74,143.82,0
108096.0,0.041,0.267,0.105,67.14,-21.15,0
108101.0,-0.034,-0.217,-0.135,-57.41,165.96,0
108106.0,0.189,0.302,0.155,51.05,-50.63,0
108111.0,-0.053,-0.313,-0.022,-79.63,112.71,0
108116.0,0.069,0.31,0.165,60.02,-22.82,0
108121.0,-0.024,-0.267,-0.068,-74.97,160.38,0
108126.0,0.105,0.36,0.119,66.17,-41.44,0
108131.0,-0.024,-0.277,-0.022,-83.26,132.53,0
108136.0,0.005,0.314,0.102,71.95,-2.59,0
108141.0,-0.036,-0.246,-0.135,-60.44,165.0,0
108146.0,0.096,0.31,0.055,70.43,-60.31,0
108151.0,-0.024,-0.308,-0.099,-71.74,166.28,0
108156.0,0.012,0.336,0.148,66.18,-4.57,0
108161.0,0.069,-0.313,0.002,-77.51,-88.48,0
108166.0,0.17,0.42,0.064,66.62,-69.33,0
108171.0,-0.019,-0.327,-0.013,-85.98,122.98,0
108176.0,-0.026,0.35,0.071,77.76,20.39,0
108181.0,0.036,-0.236,-0.025,-79.6,-124.42,0
108186.0,0.074,0.331,0.138,64.65,-28.17,0
108191.0,-0.05,-0.258,-0.06,-73.02,140.14,0
108196.0,0.026,0.293,0.138,64.33,-10.72,0
108201.0,0.086,-0.258,0.011,-71.39,-82.44,0
108206.0,0.211,0.302,0.035,54.79,-80.47,0
108211.0,0.093,-0.124,-0.245,-25.28,-159.15,0
108216.0,0.017,0.24,0.076,72.04,-12.31,0
108221.0,0.076,-0.181,-0.221,-37.78,-160.9,0
108226.0,0.031,0.2,0.148,52.86,-11.83,0
108231.0,-0.017,-0.15,-0.192,-37.88,174.97,0
108236.0,-0.086,0.319,0.102,67.24,40.14,0
108241.0,0.105,-0.179,-0.137,-45.98,-142.49,0
108246.0,0.227,0.312,0.124,50.32,-61.4,0
108251.0,0.117,-0.258,-0.185,-49.66,-147.64,0
108256.0,-0.038,0.233,0.035,77.36,47.41,0
108261.0,0.108,-0.287,-0.149,-57.32,-144.17,0
108266.0,0.005,0.166,0.052,72.51,-5.08,0
108271.0,0.117,-0.332,-0.18,-57.09,-146.96,0
108276.0,-0.117,0.202,0.143,47.48,39.39,0
108281.0,0.096,-0.265,-0.07,-65.91,-126.21,0
108286.0,0.244,0.233,0.114,40.85,-64.89,0
108291.0,0.098,-0.308,-0.125,-62.72,-141.92,0
108296.0,0.28,0.214,0.105,35.58,-69.48,0
108301.0,-0.335,-0.26,-0.19,-34.03,119.5,0
108306.0,0.194,0.302,0.141,51.63,-54.02,0
108311.0,-0.362,-0.387,-0.18,-43.77,116.47,0
108316.0,0.254,0.279,0.069,46.66,-74.81,0
108321.0,-0.398,-0.277,-0.23,-31.07,120.09,0
108326.0,0.175,0.322,0.078,59.24,-65.81,0
108331.0,-0.381,-0.31,-0.221,-35.19,120.11,0
108336.0,0.306,0.159,0.124,25.67,-67.97,0
108341.0,-0.307,-0.27,-0.185,-36.99,121.09,0
108346.0,0.177,0.276,0.052,56.25,-73.6,0
108351.0,-0.228,-0.279,-0.166,-44.77,126.06,0
108356.0,0.263,0.113,0.153,20.43,-59.88,0
108361.0,-0.307,-0.258,-0.132,-37.67,113.33,0
108366.0,0.261,0.257,0.157,40.15,-58.88,0
108371.0,-0.347,-0.26,-0.218,-32.38,122.17,0
108376.0,0.268,0.156,0.105,28.53,-68.64,0
108381.0,-0.268,-0.255,-0.197,-37.5,126.27,0
108386.0,0.254,0.156,0.138,28.43,-61.4,0
108391.0,-0.28,-0.2,-0.125,-33.13,114.05,0
108396.0,0.239,0.202,0.148,35.67,-58.28,0
108401.0,-0.189,-0.2,-0.099,-43.18,117.54,0
108406.0,0.246,0.228,0.165,37.6,-56.25,0
108411.0,-0.275,-0.291,-0.168,-42.07,121.4,0
108416.0,0.17,0.161,0.143,35.98,-49.88,0
108421.0,-0.223,-0.145,-0.118,-29.95,117.88,0
108426.0,0.22,0.188,0.165,34.31,-53.2,0
108431.0,-0.23,-0.287,-0.118,-47.95,117.14,0
108436.0,0.263,0.144,0.227,22.57,-49.24,0
108441.0,-0.196,-0.191,-0.166,-36.57,130.15,0
108446.0,0.297,0.211,0.258,28.27,-48.99,0
108451.0,-0.24,-0.181,-0.065,-36.12,105.22,0
108456.0,0.165,0.097,0.098,26.73,-59.4,0
108461.0,-0.201,-0.196,-0.218,-33.36,137.34,0
108466.0,0.182,0.183,0.119,40.06,-56.76,0
108471.0,-0.247,-0.284,-0.183,-42.79,126.49,0
108476.0,0.151,0.188,0.157,40.71,-43.74,0
108481.0,-0.11,-0.2,-0.051,-58.77,114.75,0
108486.0,0.237,0.228,0.217,35.38,-47.47,0
108491.0,-0.141,-0.176,-0.089,-46.53,122.23,0
108496.0,0.155,0.149,0.124,36.89,-51.44,0
108501.0,-0.07,-0.263,-0.072,-69.07,136.13,0
108506.0,0.208,0.197,0.22,33.08,-43.45,0
108511.0,-0.189,-0.117,-0.12,-27.45,122.43,0
108516.0,0.234,0.185,0.232,29.32,-45.34,0
108521.0,-0.07,-0.227,-0.01,-72.76,98.29,0
108526.0,0.182,0.264,0.191,45.05,-43.59,0
108531.0,-0.199,-0.315,-0.115,-53.89,120.14,0
108536.0,0.244,0.279,0.289,36.36,-40.17,0
108541.0,-0.144,-0.294,-0.07,-61.43,115.95,0
108546.0,0.211,0.343,0.15,52.99,-54.48,0
108551.0,-0.153,-0.231,-0.07,-53.93,114.53,0
108556.0,0.143,0.161,0.191,34.01,-36.92,0
108561.0,-0.053,-0.229,-0.151,-55.01,160.76,0
108566.0,0.16,0.219,0.181,42.1,-41.46,0
108571.0,-0.134,-0.126,-0.036,-42.19,105.2,0
108576.0,0.122,0.149,0.134,39.53,-42.41,0
108581.0,-0.115,-0.243,-0.18,-48.71,147.43,0
108586.0,0.177,0.235,0.15,45.4,-49.67,0
108591.0,-0.17,-0.205,-0.104,-45.84,121.31,0
108596.0,0.153,0.3,0.143,55.07,-46.93,0
108601.0,0.007,-0.294,-0.013,-87.2,-150.73,0
108606.0,0.146,0.286,0.193,49.71,-37.03,0
108611.0,-0.137,-0.287,-0.08,-61.11,120.22,0
108616.0,0.208,0.329,0.22,47.37,-43.45,0
108621.0,-0.043,-0.349,0.031,-81.36,54.75,0
108626.0,0.23,0.341,0.236,45.95,-44.17,0
108631.0,-0.077,-0.327,-0.048,-74.49,122.25,0
108636.0,0.16,0.314,0.198,50.98,-38.96,0
108641.0,-0.101,-0.27,-0.101,-62.12,135.11,0
108646.0,0.158,0.283,0.117,55.28,-53.51,0
108651.0,-0.132,-0.2,-0.106,-49.83,128.77,0
108656.0,0.084,0.31,0.189,56.33,-23.92,0
108661.0,-0.003,-0.344,-0.077,-77.35,178.1,0
108666.0,0.179,0.214,0.203,38.29,-41.48,0
108671.0,-0.048,-0.315,-0.094,-71.49,152.91,0
108676.0,0.079,0.42,0.172,65.76,-24.65,0
108681.0,-0.11,-0.265,-0.115,-58.92,136.32,0
108686.0,0.165,0.243,0.184,44.48,-41.92,0
108691.0,-0.034,-0.322,-0.058,-78.25,149.87,0
108696.0,0.05,0.362,0.126,69.44,-21.64,0
108701.0,-0.0,-0.318,-0.013,-87.74,179.27,0
108706.0,0.124,0.348,0.191,56.78,-33.07,0
108711.0,-0.034,-0.315,-0.013,-83.5,110.41,0
108716.0,0.021,0.329,0.098,73.1,-12.36,0
108721.0,0.062,-0.234,0.016,-74.65,-75.38,0
108726.0,0.139,0.262,0.033,61.43,-76.63,0
108731.0,-0.034,-0.263,-0.065,-74.38,152.68,0
108736.0,0.079,0.3,0.191,55.45,-22.43,0
108741.0,0.079,-0.366,-0.032,-76.91,-111.89,0
108746.0,0.036,0.396,0.105,74.37,-18.84,0
108751.0,-0.019,-0.243,-0.039,-79.89,153.58,0
108756.0,-0.026,0.398,0.09,76.69,16.33,0
108761.0,0.076,-0.313,-0.041,-74.48,-118.36,0
108766.0,0.086,0.389,0.114,69.79,-36.95,0
108771.0,-0.036,-0.248,-0.005,-81.64,98.43,0
108776.0,-0.0,0.281,0.019,86.21,0.49,0
108781.0,-0.082,-0.229,-0.171,-50.46,154.44,0
108786.0,0.024,0.288,0.086,72.86,-15.52,0
108791.0,-0.012,-0.2,-0.06,-72.9,168.65,0
108796.0,-0.06,0.259,0.019,76.38,72.79,0
108801.0,0.098,-0.184,-0.058,-58.18,-120.63,0
108806.0,0.273,0.317,0.129,46.41,-64.74,0
108811.0,0.163,-0.169,0.052,-44.73,-72.23,0
108816.0,-0.053,0.267,0.035,76.59,56.21,0
108821.0,0.105,-0.102,-0.238,-21.46,-156.12,0
108826.0,0.064,0.204,0.117,56.86,-28.91,0
108831.0,0.067,-0.248,-0.175,-52.91,-159.12,0
108836.0,-0.079,0.209,0.09,60.11,41.2,0
108841.0,-0.003,-0.073,-0.159,-24.84,179.08,0
108846.0,0.246,0.238,0.095,41.99,-68.88,0
108851.0,0.148,-0.097,-0.187,-22.17,-141.63,0
108856.0,-0.146,0.156,0.148,36.95,44.67,0
108861.0,0.064,-0.217,-0.171,-49.97,-159.29,0
108866.0,-0.05,0.259,0.131,61.56,21.04,0
108871.0,0.112,-0.327,-0.094,-65.89,-129.89,0
108876.0,-0.141,0.252,0.155,50.23,42.36,0
108881.0,0.177,-0.313,-0.221,-47.87,-141.28,0
108886.0,0.294,0.257,0.105,39.44,-70.4,0
108891.0,0.115,-0.296,-0.175,-54.71,-146.79,0
108896.0,-0.129,0.118,0.174,28.55,36.61,0
108901.0,-0.321,-0.258,-0.23,-33.12,125.67,0
108906.0,0.223,0.267,0.098,47.65,-66.31,0
108911.0,-0.331,-0.248,-0.115,-35.33,109.26,0
108916.0,0.239,0.152,0.157,27.9,-56.65,0
108921.0,-0.343,-0.164,-0.209,-22.28,121.37,0
108926.0,0.199,0.116,-0.003,30.23,-90.85,0
108931.0,-0.28,-0.306,-0.214,-40.94,127.32,0
108936.0,0.177,0.137,0.126,32.26,-54.48,0
108941.0,-0.29,-0.272,-0.185,-38.36,122.54,0
108946.0,0.251,0.243,0.117,41.21,-65.07,0
108951.0,-0.323,-0.229,-0.123,-33.51,110.77,0
108956.0,0.194,0.168,0.157,34.0,-50.9,0
108961.0,-0.206,-0.215,-0.171,-38.75,129.61,0
108966.0,0.273,0.247,0.179,37.17,-56.73,0
108971.0,-0.247,-0.277,-0.044,-47.86,100.03,0
108976.0,0.28,0.147,0.239,21.75,-49.53,0
108981.0,-0.261,-0.241,-0.161,-38.16,121.65,0
108986.0,0.187,0.168,0.09,39.08,-64.15,0
108991.0,-0.285,-0.253,-0.228,-34.72,128.65,0
108996.0,0.16,0.123,0.131,30.69,-50.71,0
109001.0,-0.232,-0.174,-0.13,-33.17,119.19,0
109006.0,0.23,0.168,0.153,31.41,-56.39,0
109011.0,-0.28,-0.164,-0.144,-27.55,117.23,0
109016.0,0.184,0.18,0.177,35.25,-46.2,0
109021.0,-0.211,-0.215,-0.161,-38.98,127.36,0
109026.0,0.244,0.161,0.114,30.89,-64.89,0
109031.0,-0.287,-0.184,-0.132,-30.12,114.7,0
109036.0,0.196,0.149,0.169,29.93,-49.18,0
109041.0,-0.17,-0.203,-0.156,-41.27,132.55,0
109046.0,0.199,0.18,0.174,34.33,-48.74,0
109051.0,-0.211,-0.215,-0.132,-40.78,122.1,0
109056.0,0.203,0.149,0.189,28.29,-47.16,0
109061.0,-0.106,-0.21,-0.075,-58.36,125.33,0
109066.0,0.234,0.173,0.162,31.27,-55.32,0
109071.0,-0.283,-0.121,-0.163,-20.38,120.02,0
109076.0,0.208,0.192,0.196,33.95,-46.75,0
109081.0,-0.149,-0.253,-0.137,-51.38,132.68,0
109086.0,0.203,0.2,0.134,39.36,-56.71,0
109091.0,-0.259,-0.241,-0.194,-36.67,126.93,0
109096.0,0.208,0.195,0.162,36.42,-52.06,0
109101.0,-0.175,-0.251,-0.142,-48.05,129.03,0
109106.0,0.215,0.276,0.186,44.13,-49.15,0
109111.0,-0.24,-0.181,-0.118,-34.16,116.2,0
109116.0,0.199,0.176,0.153,35.03,-52.44,0
109121.0,-0.141,-0.279,-0.115,-56.83,129.24,0
109126.0,0.175,0.274,0.16,49.15,-47.53,0
109131.0,-0.228,-0.215,-0.163,-37.46,125.67,0
109136.0,0.196,0.188,0.186,34.74,-46.49,0
109141.0,-0.11,-0.272,-0.127,-58.23,139.13,0
109146.0,0.194,0.195,0.169,37.11,-48.83,0
109151.0,-0.201,-0.224,-0.163,-40.86,129.06,0
109156.0,0.163,0.336,0.21,51.66,-37.74,0
109161.0,-0.065,-0.253,0.004,-75.6,86.27,0
109166.0,0.182,0.314,0.258,44.89,-35.17,0
109171.0,-0.115,-0.301,-0.111,-62.04,133.89,0
109176.0,0.115,0.276,0.107,60.37,-46.96,0
109181.0,-0.091,-0.267,-0.156,-55.93,149.73,0
109186.0,0.134,0.228,0.141,49.6,-43.59,0
109191.0,-0.11,-0.14,-0.087,-45.03,128.19,0
109196.0,0.091,0.219,0.134,53.56,-34.22,0
109201.0,-0.101,-0.31,-0.166,-58.0,148.72,0
109206.0,0.143,0.295,0.193,50.8,-36.58,0
109211.0,-0.185,-0.26,-0.12,-49.75,123.1,0
109216.0,0.112,0.386,0.167,62.47,-33.93,0
109221.0,-0.019,-0.382,-0.01,-86.73,117.69,0
109226.0,0.148,0.317,0.196,52.22,-37.14,0
109231.0,-0.141,-0.318,-0.123,-59.49,130.94,0
109236.0,0.043,0.324,0.074,75.26,-30.24,0
109241.0,-0.022,-0.306,-0.106,-70.52,168.42,0
109246.0,0.1,0.317,0.148,60.57,-34.17,0
109251.0,-0.12,-0.289,-0.142,-57.27,139.79,0
109256.0,0.151,0.31,0.181,52.71,-39.71,0
109261.0,-0.007,-0.294,-0.053,-79.63,172.15,0
109266.0,0.1,0.31,0.155,59.18,-32.92,0
109271.0,0.029,-0.239,-0.001,-83.17,-91.12,0
109276.0,0.091,0.343,0.208,56.55,-23.61,0
109281.0,0.017,-0.332,-0.051,-80.85,-161.92,0
109286.0,0.165,0.276,0.172,49.21,-43.85,0
109291.0,-0.132,-0.215,-0.063,-55.77,115.47,0
109296.0,0.048,0.367,0.066,77.43,-35.67,0
109301.0,0.005,-0.298,-0.065,-77.65,-175.94,0
109306.0,0.086,0.262,0.16,55.26,-28.29,0
109311.0,0.041,-0.284,-0.075,-73.33,-151.54,0
109316.0,0.041,0.401,0.074,78.15,-28.83,0
109321.0,-0.007,-0.32,-0.036,-83.37,168.62,0
109326.0,0.122,0.245,0.066,60.45,-61.4,0
109331.0,0.007,-0.26,-0.029,-83.4,-166.52,0
109336.0,0.048,0.322,0.114,68.93,-22.65,0
109341.0,0.021,-0.179,0.023,-79.95,-42.45,0
109346.0,0.091,0.298,0.155,58.88,-30.36,0
109351.0,0.021,-0.26,-0.029,-82.06,-143.86,0
109356.0,-0.005,0.231,0.119,62.66,2.38,0
109361.0,0.11,-0.193,0.002,-60.34,-89.04,0
109366.0,0.021,0.326,0.083,75.25,-14.41,0
109371.0,0.067,-0.136,-0.034,-61.05,-117.0,0
109376.0,0.002,0.257,0.122,64.68,-1.05,0
109381.0,0.067,-0.203,0.014,-71.38,-78.34,0
109386.0,0.005,0.267,0.074,74.52,-3.6,0
109391.0,0.1,-0.167,0.081,-52.3,-51.16,0
109396.0,-0.007,0.25,0.134,61.84,3.15,0
109401.0,0.127,-0.236,0.057,-59.54,-65.82,0
109406.0,0.246,0.341,0.138,50.33,-60.7,0
109411.0,0.057,-0.112,-0.046,-56.66,-128.79,0
109416.0,-0.11,0.214,-0.005,62.69,92.78,0
109421.0,0.009,-0.136,-0.092,-55.85,-174.13,0
109426.0,-0.082,0.207,0.153,50.06,28.11,0
109431.0,0.088,-0.152,-0.108,-47.47,-140.77,0
109436.0,-0.122,0.202,0.193,41.43,32.3,0
109441.0,0.06,-0.112,-0.156,-33.75,-159.08,0
109446.0,0.306,0.307,0.16,41.65,-62.44,0
109451.0,0.146,-0.136,-0.168,-31.36,-139.06,0
109456.0,-0.072,0.077,0.09,33.81,38.52,0
109461.0,0.117,-0.296,-0.245,-47.49,-154.42,0
109466.0,-0.029,0.216,0.074,69.91,21.42,0
109471.0,0.225,-0.344,-0.254,-45.37,-138.52,0
109476.0,-0.096,0.235,0.114,57.62,39.99,0
109481.0,0.143,-0.342,-0.132,-60.26,-132.66,0
109486.0,0.187,0.269,0.11,51.18,-59.58,0
109491.0,0.234,-0.27,-0.254,-37.95,-137.33,0
109496.0,-0.201,0.147,0.047,35.38,76.77,0
109501.0,0.223,-0.207,-0.089,-40.88,-111.83,0
109506.0,-0.089,0.183,0.105,53.08,40.26,0
109511.0,-0.235,-0.294,-0.214,-42.77,132.3,0
109516.0,0.309,0.178,0.213,25.4,-55.45,0
109521.0,-0.223,-0.277,-0.082,-49.39,110.2,0
109526.0,0.251,0.219,0.153,36.64,-58.71,0
109531.0,-0.271,-0.315,-0.113,-47.06,112.67,0
109536.0,0.28,0.231,0.157,35.68,-60.65,0
109541.0,-0.264,-0.236,-0.151,-37.86,119.88,0
109546.0,0.218,0.176,0.126,34.9,-59.87,0
109551.0,-0.266,-0.255,-0.139,-40.38,117.67,0
109556.0,0.194,0.111,0.071,28.25,-69.81,0
109561.0,-0.287,-0.145,-0.202,-22.47,125.05,0
109566.0,0.251,0.195,0.248,28.86,-45.32,0
109571.0,-0.247,-0.258,-0.015,-46.2,93.46,0
109576.0,0.251,0.14,0.162,25.03,-57.15,0
109581.0,-0.216,-0.198,-0.135,-37.9,121.98,0
109586.0,0.23,0.243,0.217,37.5,-46.59,0
109591.0,-0.201,-0.356,-0.113,-57.03,119.33,0
109596.0,0.223,0.178,0.16,33.01,-54.31,0
109601.0,-0.218,-0.253,-0.08,-47.47,110.05,0
109606.0,0.258,0.36,0.239,45.65,-47.25,0
109611.0,-0.287,-0.217,-0.108,-35.25,110.64,0
109616.0,0.266,0.192,0.165,31.61,-58.21,0
109621.0,-0.206,-0.255,-0.106,-47.79,117.2,0
109626.0,0.206,0.223,0.153,41.1,-53.42,0
109631.0,-0.311,-0.255,-0.202,-34.54,122.93,0
109636.0,0.182,0.137,0.208,26.44,-41.19,0
109641.0,-0.077,-0.174,-0.036,-63.96,115.41,0
109646.0,0.163,0.214,0.112,47.29,-55.46,0
109651.0,-0.22,-0.212,-0.101,-41.2,114.64,0
109656.0,0.246,0.247,0.299,32.57,-39.52,0
109661.0,-0.065,-0.308,-0.015,-77.82,102.97,0
109666.0,0.167,0.262,0.136,50.52,-50.93,0
109671.0,-0.187,-0.207,-0.106,-44.01,119.54,0
109676.0,0.213,0.099,0.232,17.46,-42.58,0
109681.0,-0.096,-0.215,-0.101,-57.01,136.51,0
109686.0,0.189,0.192,0.263,30.72,-35.72,0
109691.0,-0.117,-0.155,0.023,-52.27,78.74,0
109696.0,0.273,0.18,0.248,26.05,-47.67,0
109701.0,-0.201,-0.32,-0.101,-54.86,116.67,0
109706.0,0.191,0.259,0.16,46.13,-50.13,0
109711.0,-0.206,-0.181,-0.166,-34.41,128.81,0
109716.0,0.232,0.245,0.174,40.17,-53.11,0
109721.0,-0.177,-0.334,-0.132,-56.51,126.71,0
109726.0,0.196,0.314,0.203,48.09,-44.03,0
109731.0,-0.129,-0.248,-0.106,-56.03,129.29,0
109736.0,0.177,0.279,0.131,51.66,-53.47,0
109741.0,-0.017,-0.272,-0.003,-86.39,99.9,0
109746.0,0.141,0.185,0.153,41.69,-42.74,0
109751.0,-0.173,-0.193,-0.144,-40.66,129.89,0
109756.0,0.184,0.307,0.236,45.71,-37.92,0
109761.0,-0.062,-0.227,0.021,-73.8,71.41,0
109766.0,0.177,0.264,0.224,42.74,-38.26,0
109771.0,-0.096,-0.346,-0.123,-65.79,141.97,0
109776.0,0.201,0.334,0.198,49.77,-45.4,0
109781.0,-0.153,-0.284,0.002,-61.63,89.31,0
109786.0,0.139,0.355,0.093,64.83,-56.21,0
109791.0,-0.125,-0.308,-0.137,-58.98,137.71,0
109796.0,0.076,0.267,0.126,61.01,-31.18,0
109801.0,-0.058,-0.294,-0.142,-62.47,157.89,0
109806.0,0.146,0.295,0.157,53.99,-42.82,0
109811.0,-0.137,-0.275,-0.032,-62.94,103.06,0
109816.0,0.117,0.415,0.167,63.82,-35.05,0
109821.0,-0.024,-0.339,-0.025,-84.21,135.47,0
109826.0,0.155,0.367,0.134,60.83,-49.34,0
109831.0,-0.086,-0.291,-0.115,-63.66,143.21,0
109836.0,0.048,0.293,0.086,71.49,-29.13,0
109841.0,-0.031,-0.31,-0.077,-74.98,157.93,0
109846.0,0.177,0.331,0.241,47.9,-36.27,0
109851.0,-0.077,-0.186,-0.017,-67.06,102.71,0
109856.0,0.055,0.353,0.071,75.69,-37.61,0
109861.0,-0.043,-0.32,-0.075,-74.89,149.95,0
109866.0,0.143,0.336,0.126,60.36,-48.64,0
109871.0,-0.151,-0.303,-0.135,-56.29,131.72,0
109876.0,-0.022,0.35,0.062,79.43,19.39,0
109881.0,0.029,-0.351,-0.099,-73.69,-163.86,0
109886.0,0.067,0.322,0.198,56.97,-18.65,0
109891.0,-0.017,-0.164,0.007,-83.69,68.62,0
109896.0,0.036,0.283,0.11,67.86,-18.07,0
109901.0,0.036,-0.275,-0.048,-77.63,-143.57,0
109906.0,0.05,0.211,0.071,67.61,-35.12,0
109911.0,-0.019,-0.231,-0.12,-62.24,170.88,0
109916.0,0.017,0.374,0.105,74.17,-9.0,0
109921.0,0.029,-0.215,-0.005,-82.29,-100.6,0
109926.0,0.079,0.247,-0.013,72.11,-99.03,0
109931.0,0.074,-0.239,0.062,-68.0,-50.21,0
109936.0,-0.058,0.403,0.098,74.29,30.56,0
109941.0,0.074,-0.2,-0.025,-68.72,-108.31,0
109946.0,0.029,0.113,0.09,50.08,-17.54,0
109951.0,0.05,-0.318,-0.075,-74.18,-146.17,0
109956.0,-0.058,0.293,0.057,74.54,45.36,0
109961.0,0.043,-0.057,-0.015,-51.26,-109.17,0
109966.0,-0.005,0.25,0.126,63.15,2.24,0
109971.0,0.062,-0.217,0.057,-68.8,-47.5,0
109976.0,-0.043,0.243,0.038,76.69,48.89,0
109981.0,0.055,-0.152,-0.084,-56.56,-146.94,0
109986.0,-0.036,0.247,0.062,73.89,30.32,0
109991.0,0.098,-0.248,0.076,-63.44,-52.19,0
109996.0,-0.065,0.259,0.078,68.58,39.56,0
110001.0,0.1,-0.097,-0.001,-44.12,-90.32,0
110006.0,0.014,0.271,0.122,65.73,-6.67,0
110011.0,0.146,-0.217,0.078,-52.65,-61.73,0
110016.0,-0.146,0.164,-0.013,48.11,94.9,0
110021.0,0.12,-0.093,-0.111,-29.61,-132.8,0
110026.0,-0.122,0.123,0.143,33.14,40.51,0
110031.0,0.146,-0.131,-0.154,-31.69,-136.51,0
110036.0,-0.144,0.176,0.059,48.46,67.59,0
110041.0,0.132,-0.059,-0.175,-15.08,-143.13,0
110046.0,0.254,0.274,0.119,44.33,-64.84,0
110051.0,0.136,-0.184,-0.178,-39.33,-142.51,0
110056.0,-0.062,0.106,0.203,26.56,17.09,0
110061.0,0.031,0.02,-0.173,6.48,-169.85,0
110066.0,-0.091,0.085,0.098,32.35,43.04,0
110071.0,0.175,-0.332,-0.137,-56.23,-128.12,0
110076.0,-0.194,0.168,0.124,36.18,57.44,0
110081.0,0.179,-0.255,-0.221,-41.91,-140.91,0
110086.0,0.254,0.298,0.129,46.3,-63.09,0
110091.0,0.187,-0.366,-0.108,-59.45,-120.13,0
110096.0,-0.196,0.109,0.22,20.22,41.81,0
110101.0,0.134,-0.272,-0.142,-54.37,-136.64,0
110106.0,-0.089,0.322,0.124,64.64,35.6,0
110111.0,0.158,-0.231,-0.159,-45.97,-135.13,0
110116.0,0.23,0.087,0.083,19.6,-70.08,0
110121.0,-0.194,-0.251,-0.137,-46.53,125.22,0
110126.0,0.167,0.176,0.083,43.2,-63.57,0
110131.0,-0.39,-0.196,-0.233,-23.28,120.81,0
110136.0,0.309,0.204,0.193,29.29,-57.94,0
110141.0,-0.249,-0.246,-0.02,-44.52,94.52,0
110146.0,0.172,0.195,0.071,46.25,-67.52,0
110151.0,-0.273,-0.282,-0.259,-36.81,133.5,0
110156.0,0.285,0.223,0.172,33.9,-58.89,0
110161.0,-0.235,-0.253,-0.075,-45.75,107.67,0
110166.0,0.232,0.197,0.138,36.12,-59.21,0
110171.0,-0.24,-0.248,-0.132,-42.21,118.9,0
110176.0,0.232,0.188,0.169,33.13,-53.87,0
110181.0,-0.175,-0.291,-0.053,-57.88,106.92,0
110186.0,0.223,0.204,0.184,35.3,-50.44,0
110191.0,-0.292,-0.188,-0.106,-31.21,109.92,0
110196.0,0.232,0.168,0.081,34.42,-70.79,0
110201.0,-0.146,-0.243,-0.194,-45.01,143.07,0
110206.0,0.187,0.233,0.217,39.13,-40.65,0
110211.0,-0.199,-0.215,-0.046,-46.44,103.04,0
110216.0,0.196,0.247,0.184,42.62,-46.86,0
110221.0,-0.173,-0.234,-0.08,-50.9,114.76,0
110226.0,0.182,0.149,0.138,33.16,-52.74,0
110231.0,-0.304,-0.198,-0.199,-28.56,123.23,0
110236.0,0.213,0.192,0.136,37.29,-57.45,0
110241.0,-0.199,-0.258,-0.156,-45.55,128.14,0
110246.0,0.227,0.216,0.189,36.22,-50.32,0
110251.0,-0.302,-0.279,-0.127,-40.45,112.89,0
110256.0,0.22,0.279,0.138,46.98,-57.86,0
110261.0,-0.165,-0.229,-0.125,-47.85,127.1,0
110266.0,0.179,0.2,0.138,41.37,-52.37,0
110271.0,-0.125,-0.263,-0.084,-60.18,124.09,0
110276.0,0.146,0.2,0.21,37.95,-34.77,0
110281.0,-0.098,-0.155,-0.12,-44.9,140.73,0
110286.0,0.203,0.233,0.193,39.71,-46.44,0
110291.0,-0.175,-0.258,-0.025,-55.58,97.97,0
110296.0,0.179,0.171,0.114,38.76,-57.48,0
110301.0,-0.137,-0.212,-0.192,-42.0,144.58,0
110306.0,0.172,0.314,0.148,54.17,-49.35,0
110311.0,-0.17,-0.253,-0.063,-54.36,110.26,0
110316.0,0.127,0.204,0.16,45.04,-38.41,0
110321.0,-0.062,-0.239,-0.099,-63.92,147.7,0
110326.0,0.158,0.307,0.217,48.84,-35.99,0
110331.0,-0.153,-0.267,-0.056,-58.6,109.93,0
110336.0,0.189,0.185,0.162,36.63,-49.35,0
110341.0,-0.182,-0.284,-0.142,-50.91,127.91,0
110346.0,0.184,0.362,0.078,61.08,-66.93,0
110351.0,-0.187,-0.219,-0.113,-45.13,121.18,0
110356.0,0.117,0.2,0.181,42.74,-32.86,0
110361.0,-0.098,-0.322,-0.187,-56.73,152.3,0
110366.0,0.165,0.295,0.11,56.14,-56.42,0
110371.0,-0.122,-0.191,-0.063,-54.22,117.19,0
110376.0,0.084,0.391,0.22,58.99,-20.84,0
110381.0,-0.07,-0.356,-0.032,-77.88,114.48,0
110386.0,0.237,0.341,0.129,51.65,-61.48,0
110391.0,-0.117,-0.263,-0.041,-64.63,109.35,0
110396.0,0.12,0.288,0.193,51.72,-31.73,0
110401.0,-0.0,-0.265,-0.013,-87.29,179.27,0
110406.0,0.17,0.298,0.138,53.66,-50.84,0
110411.0,-0.07,-0.265,-0.017,-74.86,103.97,0
110416.0,0.132,0.367,0.234,53.82,-29.33,0
110421.0,0.036,-0.358,0.031,-82.52,-49.47,0
110426.0,0.132,0.228,0.16,47.79,-39.45,0
110431.0,-0.06,-0.229,-0.06,-69.61,135.19,0
110436.0,-0.026,0.353,0.021,84.53,51.62,0
110441.0,-0.031,-0.248,-0.041,-78.22,142.83,0
110446.0,0.151,0.235,0.181,44.95,-39.71,0
110451.0,-0.029,-0.248,-0.001,-83.36,91.11,0
110456.0,0.124,0.31,0.251,47.88,-26.37,0
110461.0,0.033,-0.229,0.069,-71.53,-25.84,0
110466.0,0.196,0.295,0.181,47.86,-47.24,0
110471.0,0.012,-0.287,0.033,-83.03,-19.72,0
110476.0,0.038,0.386,0.16,66.95,-13.42,0
110481.0,0.072,-0.234,-0.013,-72.72,-99.92,0
110486.0,0.146,0.257,0.191,46.92,-37.38,0
110491.0,-0.041,-0.26,-0.139,-60.82,163.67,0
110496.0,0.007,0.314,0.038,83.04,-10.54,0
110501.0,0.045,-0.184,-0.051,-69.64,-138.28,0
110506.0,0.074,0.276,0.095,66.4,-37.88,0
110511.0,0.074,-0.239,0.021,-72.12,-74.18,0
110516.0,-0.015,0.336,0.179,61.87,4.64,0
110521.0,0.048,-0.239,0.009,-78.5,-79.3,0
110526.0,0.048,0.233,0.095,65.44,-26.62,0
110531.0,0.007,-0.231,-0.063,-74.73,-173.62,0
110536.0,-0.031,0.305,0.066,76.45,25.2,0
110541.0,0.036,-0.114,0.007,-72.33,-79.51,0
110546.0,-0.019,0.197,0.114,59.53,9.59,0
110551.0,0.062,-0.26,-0.065,-70.91,-136.4,0
110556.0,-0.06,0.183,0.074,62.53,39.17,0
110561.0,0.1,-0.2,-0.029,-62.43,-106.26,0
110566.0,0.014,0.279,0.09,71.81,-8.93,0
110571.0,0.072,-0.219,0.038,-69.74,-62.22,0
110576.0,0.045,0.326,0.165,62.38,-15.39,0
110581.0,0.038,-0.198,0.031,-76.13,-51.3,0
110586.0,-0.019,0.257,0.081,72.08,13.44,0
110591.0,0.115,-0.167,-0.032,-54.48,-105.43,0
110596.0,-0.139,0.123,-0.027,40.96,100.95,0
110601.0,0.127,-0.047,-0.017,-20.21,-97.78,0
110606.0,0.287,0.329,0.124,46.43,-66.65,0
110611.0,0.12,-0.083,0.047,-32.84,-68.4,0
110616.0,-0.053,0.121,0.045,60.08,49.62,0
110621.0,0.072,-0.2,-0.008,-70.21,-96.17,0
110626.0,-0.055,0.2,-0.046,70.18,129.82,0
110631.0,0.112,-0.016,-0.108,-5.84,-133.94,0
110636.0,-0.113,0.132,0.177,32.31,32.54,0
110641.0,0.151,-0.064,-0.223,-13.34,-145.98,0
110646.0,0.227,0.267,0.038,49.16,-80.57,0
110651.0,0.203,-0.026,-0.125,-6.11,-121.59,0
110656.0,-0.163,0.025,0.167,6.05,44.29,0
110661.0,0.038,0.015,-0.135,6.18,-164.18,0
110666.0,-0.163,-0.014,0.224,-2.8,35.98,0
110671.0,0.129,0.068,-0.111,21.74,-130.6,0
110676.0,-0.252,0.161,0.143,29.12,60.37,0
110681.0,0.199,-0.224,-0.118,-44.16,-120.7,0
110686.0,0.251,0.283,0.074,47.26,-73.66,0
110691.0,0.177,-0.258,-0.192,-44.62,-137.34,0
110696.0,-0.18,0.08,0.155,18.58,49.21,0
110701.0,0.165,-0.198,-0.154,-41.26,-132.98,0
110706.0,-0.146,0.144,0.124,37.0,49.71,0
110711.0,0.244,-0.212,-0.147,-36.71,-120.99,0
110716.0,-0.244,0.142,0.1,28.28,67.75,0
110721.0,-0.244,-0.272,-0.168,-42.53,124.53,0
110726.0,0.143,0.176,0.107,44.43,-53.24,0
110731.0,-0.307,-0.176,-0.163,-26.92,118.05,0
110736.0,0.184,0.149,0.114,34.54,-58.16,0
110741.0,-0.177,-0.289,-0.163,-50.15,132.65,0
110746.0,0.254,0.137,0.174,24.04,-55.51,0
110751.0,-0.402,-0.212,-0.104,-27.06,104.43,0
110756.0,0.242,0.173,0.131,32.21,-61.52,0
110761.0,-0.185,-0.207,-0.156,-40.64,130.25,0
110766.0,0.254,0.202,0.241,29.98,-46.43,0
110771.0,-0.235,-0.284,-0.032,-50.18,97.69,0
110776.0,0.191,0.195,0.145,39.01,-52.76,0
110781.0,-0.177,-0.174,-0.151,-36.73,130.49,0
110786.0,0.23,0.164,0.157,30.43,-55.57,0
110791.0,-0.266,-0.231,-0.118,-38.51,113.91,0
110796.0,0.184,0.123,0.122,29.11,-56.58,0
110801.0,-0.122,-0.176,-0.125,-45.24,135.65,0
110806.0,0.23,0.247,0.184,40.06,-51.33,0
110811.0,-0.271,-0.296,-0.12,-44.99,113.95,0
110816.0,0.182,0.214,0.107,45.38,-59.48,0
110821.0,-0.235,-0.284,-0.209,-42.12,131.65,0
110826.0,0.196,0.322,0.112,54.92,-60.28,0
110831.0,-0.168,-0.248,-0.118,-50.44,125.09,0
110836.0,0.246,0.125,0.224,20.6,-47.67,0
110841.0,-0.101,-0.188,-0.108,-51.86,137.08,0
110846.0,0.227,0.219,0.186,36.66,-50.68,0
110851.0,-0.185,-0.164,-0.017,-41.58,95.36,0
110856.0,0.201,0.192,0.246,31.19,-39.24,0
110861.0,-0.165,-0.287,-0.132,-53.53,128.65,0
110866.0,0.17,0.279,0.16,50.06,-46.73,0
110871.0,-0.165,-0.246,-0.084,-52.94,117.03,0
110876.0,0.199,0.13,0.215,23.97,-42.73,0
110881.0,-0.12,-0.224,-0.139,-50.65,139.31,0
110886.0,0.223,0.25,0.191,40.43,-49.36,0
110891.0,-0.177,-0.212,-0.089,-46.93,116.69,0
110896.0,0.177,0.223,0.198,40.06,-41.77,0
110901.0,-0.144,-0.342,-0.108,-62.21,126.98,0
110906.0,0.194,0.281,0.162,48.02,-50.06,0
110911.0,-0.192,-0.212,-0.161,-40.3,130.02,0
110916.0,0.12,0.269,0.155,53.94,-37.63,0
110921.0,-0.058,-0.282,-0.099,-67.92,149.73,0
110926.0,0.172,0.262,0.134,50.22,-52.22,0
110931.0,-0.161,-0.191,-0.113,-44.16,125.16,0
110936.0,0.103,0.286,0.136,59.19,-37.1,0
110941.0,-0.065,-0.275,-0.075,-70.18,139.09,0
110946.0,0.143,0.178,0.138,41.76,-46.05,0
110951.0,-0.127,-0.227,-0.094,-55.12,126.48,0
110956.0,0.127,0.288,0.095,61.18,-53.08,0
110961.0,-0.036,-0.349,-0.027,-82.65,126.71,0
110966.0,0.227,0.322,0.213,45.95,-46.92,0
110971.0,-0.151,-0.322,-0.032,-64.43,101.85,0
110976.0,0.146,0.506,0.179,65.47,-39.18,0
110981.0,-0.062,-0.344,-0.02,-79.23,107.53,0
110986.0,0.218,0.252,0.172,42.28,-51.72,0
110991.0,-0.084,-0.339,-0.087,-70.41,135.94,0
110996.0,0.045,0.312,0.165,61.31,-15.39,0
111001.0,0.024,-0.184,-0.044,-74.85,-151.42,0
111006.0,0.172,0.286,0.224,45.28,-37.49,0
111011.0,-0.082,-0.318,0.023,-75.04,74.0,0
111016.0,0.1,0.417,0.119,69.53,-40.12,0
111021.0,-0.046,-0.351,-0.072,-76.3,147.76,0
111026.0,0.148,0.293,0.196,50.02,-37.14,0
111031.0,-0.07,-0.334,-0.089,-71.31,142.02,0
111036.0,0.017,0.307,0.052,79.91,-17.67,0
111041.0,-0.053,-0.186,-0.151,-49.23,160.76,0
111046.0,0.093,0.324,0.143,62.21,-33.08,0
111051.0,-0.079,-0.227,-0.003,-70.73,92.14,0
111056.0,0.024,0.257,0.095,69.1,-14.03,0
111061.0,0.029,-0.234,-0.084,-69.15,-161.29,0
111066.0,0.074,0.295,0.126,63.62,-30.38,0
111071.0,-0.072,-0.26,-0.084,-66.91,139.52,0
111076.0,0.045,0.293,0.114,67.22,-21.62,0
111081.0,0.041,-0.294,0.035,-79.62,-48.91,0
111086.0,0.045,0.401,0.112,73.22,-22.04,0
111091.0,-0.012,-0.258,-0.022,-84.41,151.25,0
111096.0,0.019,0.274,0.069,75.37,-15.42,0
111101.0,0.072,-0.332,-0.07,-73.21,-134.32,0
111106.0,0.074,0.257,0.069,68.52,-47.08,0
111111.0,0.009,-0.114,-0.003,-85.06,-107.41,0
111116.0,0.076,0.329,0.165,61.1,-24.91,0
111121.0,0.05,-0.248,0.009,-78.41,-79.8,0
111126.0,0.021,0.171,0.114,55.74,-10.59,0
111131.0,0.05,-0.222,-0.02,-76.36,-111.47,0
111136.0,-0.046,0.314,0.038,79.33,50.41,0
111141.0,0.019,-0.15,-0.068,-64.92,-164.31,0
111146.0,0.024,0.123,0.086,54.13,-15.52,0
111151.0,0.048,-0.186,-0.022,-74.21,-114.86,0
111156.0,-0.038,0.341,0.062,77.96,31.95,0
111161.0,0.033,-0.157,-0.051,-68.86,-146.73,0
111166.0,0.033,0.281,0.186,56.05,-10.16,0
111171.0,0.031,-0.258,-0.017,-82.16,-119.22,0
111176.0,-0.019,0.312,0.033,83.02,30.37,0
111181.0,0.076,-0.164,-0.036,-62.74,-115.5,0
111186.0,-0.029,0.245,0.066,73.52,23.49,0
111191.0,0.115,-0.207,-0.02,-60.7,-99.75,0
111196.0,-0.05,0.19,0.081,63.36,31.96,0
111201.0,0.093,-0.117,-0.008,-51.24,-94.75,0
111206.0,-0.06,0.228,0.09,64.57,33.57,0
111211.0,0.153,-0.148,0.074,-41.0,-64.3,0
111216.0,-0.122,0.085,0.071,30.87,59.76,0
111221.0,0.06,0.013,-0.025,11.19,-112.32,0
111226.0,-0.065,0.121,-0.041,57.48,122.49,0
111231.0,0.177,-0.059,0.102,-16.11,-59.95,0
111236.0,-0.177,0.099,0.107,25.53,58.85,0
111241.0,0.098,-0.033,-0.106,-12.78,-137.22,0
111246.0,0.27,0.245,0.143,38.69,-62.11,0
111251.0,0.093,-0.059,-0.101,-23.24,-137.33,0
111256.0,-0.175,0.097,0.165,21.9,46.74,0
111261.0,0.134,-0.021,-0.125,-6.46,-133.04,0
111266.0,-0.046,0.001,0.114,0.37,21.76,0
111271.0,0.208,-0.076,-0.25,-13.13,-140.17,0
111276.0,-0.22,0.041,0.016,10.63,85.8,0
111281.0,0.227,-0.167,-0.183,-29.78,-128.77,0
111286.0,0.208,0.216,0.088,43.74,-67.08,0
111291.0,0.227,-0.255,-0.13,-44.29,-119.74,0
111296.0,-0.24,0.159,0.131,30.18,61.31,0
111301.0,0.163,-0.294,-0.154,-52.69,-133.4,0
111306.0,-0.149,0.235,0.138,49.23,47.06,0
111311.0,0.182,-0.33,-0.044,-60.44,-103.5,0
111316.0,-0.24,0.204,0.122,37.25,63.1,0
111321.0,0.172,-0.294,-0.166,-50.86,-133.9,0
111326.0,0.244,0.221,0.208,34.6,-49.6,0
111331.0,-0.335,-0.267,-0.163,-35.63,115.97,0
111336.0,0.261,0.164,0.093,30.58,-70.41,0
111341.0,-0.213,-0.148,-0.202,-26.7,133.4,0
111346.0,0.194,0.164,0.177,31.96,-47.65,0
111351.0,-0.297,-0.301,-0.168,-41.39,119.51,0
111356.0,0.165,0.159,0.047,42.77,-74.0,0
111361.0,-0.218,-0.162,-0.125,-32.8,119.84,0
111366.0,0.191,0.233,0.141,44.45,-53.68,0
111371.0,-0.299,-0.296,-0.163,-40.96,118.62,0
111376.0,0.218,0.137,0.148,27.54,-55.81,0
111381.0,-0.163,-0.246,-0.132,-49.51,129.06,0
111386.0,0.203,0.243,0.145,44.14,-54.42,0
111391.0,-0.299,-0.207,-0.082,-33.76,105.31,0
111396.0,0.287,0.121,0.222,18.36,-52.28,0
111401.0,-0.158,-0.215,-0.197,-40.37,141.22,0
111406.0,0.175,0.219,0.09,48.04,-62.62,0
111411.0,-0.304,-0.253,-0.104,-38.21,108.79,0
111416.0,0.129,0.101,0.143,27.74,-42.06,0
111421.0,-0.232,-0.172,-0.252,-26.59,137.31,0
111426.0,0.182,0.219,0.141,43.57,-52.26,0
111431.0,-0.125,-0.239,-0.077,-58.43,121.76,0
111436.0,0.165,0.154,0.205,30.31,-38.79,0
111441.0,-0.146,-0.255,-0.072,-57.43,116.34,0
111446.0,0.227,0.305,0.181,46.35,-51.41,0
111451.0,-0.244,-0.162,-0.214,-26.52,131.16,0
111456.0,0.16,0.132,0.095,35.4,-59.28,0
111461.0,-0.132,-0.229,-0.139,-50.04,136.6,0
111466.0,0.148,0.25,0.119,52.71,-51.22,0
111471.0,-0.096,-0.234,-0.08,-61.94,129.67,0
111476.0,0.163,0.207,0.265,33.6,-31.52,0
111481.0,-0.022,-0.275,0.009,-85.11,67.44,0
111486.0,0.196,0.305,0.114,53.32,-59.76,0
111491.0,-0.165,-0.239,-0.108,-50.36,123.22,0
111496.0,0.22,0.221,0.201,36.59,-47.66,0
111501.0,-0.089,-0.32,-0.072,-70.31,129.2,0
111506.0,0.196,0.202,0.141,39.91,-54.35,0
111511.0,-0.177,-0.179,-0.072,-43.03,112.21,0
111516.0,0.201,0.243,0.244,37.53,-39.51,0
111521.0,-0.106,-0.255,-0.051,-65.36,115.73,0
111526.0,0.191,0.24,0.217,39.68,-41.37,0
111531.0,-0.115,-0.277,-0.058,-65.04,116.76,0
111536.0,0.167,0.283,0.15,51.55,-48.09,0
111541.0,-0.091,-0.306,-0.106,-65.43,139.29,0
111546.0,0.175,0.276,0.184,47.44,-43.53,0
111551.0,-0.175,-0.227,-0.159,-43.83,132.19,0
111556.0,0.143,0.336,0.102,62.32,-54.49,0
111561.0,-0.029,-0.327,-0.039,-81.58,143.38,0
111566.0,0.172,0.269,0.213,44.51,-39.02,0
111571.0,-0.108,-0.203,-0.065,-58.12,121.14,0
111576.0,0.223,0.269,0.22,40.7,-45.36,0
111581.0,-0.07,-0.303,-0.029,-76.02,112.83,0
111586.0,0.175,0.393,0.162,58.79,-47.1,0
111591.0,-0.144,-0.31,-0.142,-56.95,134.6,0
111596.0,0.134,0.322,0.232,50.24,-30.03,0
111601.0,0.021,-0.313,0.021,-84.53,-45.54,0
111606.0,0.122,0.3,0.098,62.5,-51.33,0
111611.0,-0.089,-0.181,-0.106,-52.67,140.04,0
111616.0,0.122,0.281,0.155,54.92,-38.18,0
111621.0,-0.019,-0.313,0.004,-86.38,77.65,0
111626.0,0.093,0.259,0.098,62.51,-43.68,0
111631.0,-0.048,-0.131,-0.072,-56.42,146.43,0
111636.0,0.067,0.319,0.129,65.56,-27.45,0
111641.0,-0.046,-0.301,0.023,-80.33,62.88,0
111646.0,0.088,0.211,0.155,49.83,-29.69,0
111651.0,-0.015,-0.196,-0.094,-64.07,171.21,0
111656.0,0.038,0.381,0.122,71.53,-17.42,0
111661.0,-0.053,-0.322,-0.068,-75.1,141.99,0
111666.0,0.129,0.262,0.165,51.36,-38.11,0
111671.0,-0.038,-0.308,-0.13,-66.27,163.5,0
111676.0,0.026,0.401,0.052,81.72,-26.67,0
111681.0,-0.05,-0.258,-0.003,-78.91,93.35,0
111686.0,0.136,0.271,0.239,44.61,-29.71,0
111691.0,-0.0,-0.339,-0.029,-85.06,179.69,0
111696.0,0.062,0.393,0.131,69.76,-25.34,0
111701.0,0.045,-0.231,0.007,-78.8,-81.69,0
111706.0,0.096,0.223,0.169,48.96,-29.44,0
111711.0,0.041,-0.215,-0.01,-78.98,-104.04,0
111716.0,0.007,0.295,0.059,78.57,-6.75,0
111721.0,0.062,-0.148,-0.032,-64.73,-117.04,0
111726.0,0.069,0.216,0.145,53.31,-25.46,0
111731.0,0.057,-0.229,-0.032,-74.05,-118.94,0
111736.0,-0.029,0.226,0.066,72.21,23.49,0
111741.0,0.103,-0.184,-0.003,-60.74,-91.65,0
111746.0,0.05,0.298,0.119,66.53,-22.81,0
111751.0,-0.015,-0.164,-0.032,-78.03,155.37,0
111756.0,-0.046,0.228,0.052,73.12,41.22,0
111761.0,0.038,-0.215,-0.01,-79.58,-104.88,0
111766.0,-0.062,0.259,0.069,70.29,42.18,0
111771.0,0.105,-0.164,0.011,-57.24,-83.81,0
111776.0,-0.091,0.245,0.055,66.57,59.12,0
111781.0,0.002,-0.114,-0.161,-35.33,-179.2,0
111786.0,0.024,0.235,0.023,81.94,-45.49,0
111791.0,0.072,-0.076,-0.001,-46.61,-90.45,0
111796.0,-0.06,0.144,0.043,63.01,54.67,0
111801.0,0.091,-0.136,-0.089,-46.83,-134.47,0
111806.0,-0.065,0.113,0.047,54.7,53.86,0
111811.0,0.024,-0.049,-0.12,-21.98,-168.81,0
111816.0,-0.098,0.192,0.021,62.4,77.95,0
111821.0,0.103,-0.37,-0.113,-67.57,-137.73,0
111826.0,-0.055,0.188,0.007,73.48,83.16,0
111831.0,0.124,-0.174,-0.077,-49.93,-121.83,0
111836.0,-0.165,0.262,-0.001,57.72,90.19,0
111841.0,0.122,-0.126,-0.08,-40.89,-123.12,0
111846.0,-0.046,0.135,0.119,46.59,20.96,0
111851.0,0.165,-0.138,-0.178,-29.65,-137.12,0
111856.0,-0.156,0.121,0.076,34.8,63.98,0
111861.0,-0.235,-0.15,-0.192,-26.32,129.29,0
111866.0,-0.086,-0.045,0.136,-15.51,32.43,0
111871.0,0.208,-0.023,-0.19,-4.7,-132.35,0
111876.0,-0.108,0.051,0.102,18.95,46.5,0
111881.0,0.199,0.089,-0.238,16.1,-140.11,0
111886.0,-0.06,0.039,-0.01,32.72,99.59,0
111891.0,0.182,-0.255,-0.209,-42.69,-138.96,0
111896.0,-0.165,0.164,0.16,35.43,45.97,0
111901.0,-0.254,-0.227,-0.127,-38.58,116.65,0
111906.0,-0.211,0.228,0.138,42.15,56.74,0
111911.0,0.211,-0.32,-0.161,-50.37,-127.4,0
111916.0,-0.189,0.14,0.143,30.48,52.91,0
111921.0,0.16,-0.227,-0.123,-48.32,-127.43,0
111926.0,-0.17,0.276,0.129,52.31,52.89,0
111931.0,0.234,-0.205,-0.218,-32.62,-132.97,0
111936.0,0.227,0.116,0.136,23.6,-59.12,0
111941.0,-0.309,-0.224,-0.166,-32.6,118.21,0
111946.0,0.175,0.14,0.145,31.57,-50.2,0
111951.0,-0.328,-0.16,-0.252,-21.1,127.52,0
111956.0,0.234,0.077,0.083,17.28,-70.46,0
111961.0,-0.206,-0.241,-0.058,-48.39,105.73,0
111966.0,0.203,0.156,0.167,30.73,-50.6,0
111971.0,-0.29,-0.224,-0.178,-33.41,121.52,0
111976.0,0.201,0.214,0.172,38.97,-49.47,0
111981.0,-0.192,-0.174,-0.12,-37.55,122.1,0
111986.0,0.251,0.113,0.189,19.84,-53.11,0
111991.0,-0.141,-0.229,-0.039,-57.37,105.37,0
111996.0,0.167,0.092,0.153,22.05,-47.64,0
112001.0,-0.175,-0.105,-0.161,-23.74,132.62,0
112006.0,0.179,0.161,0.162,33.68,-47.88,0
112011.0,-0.232,-0.205,-0.178,-35.03,127.41,0
112016.0,0.206,0.123,0.143,26.12,-55.18,0
112021.0,-0.098,-0.188,-0.048,-59.8,116.23,0
112026.0,0.232,0.233,0.27,33.21,-40.68,0
112031.0,-0.208,-0.267,-0.036,-51.64,99.92,0
112036.0,0.275,0.147,0.222,22.55,-51.09,0
112041.0,-0.036,-0.186,-0.115,-56.95,162.65,0
112046.0,0.223,0.231,0.26,33.96,-40.51,0
112051.0,-0.115,-0.241,-0.017,-64.23,98.56,0
112056.0,0.184,0.231,0.21,39.54,-41.24,0
112061.0,-0.139,-0.239,-0.149,-49.5,136.98,0
112066.0,0.213,0.276,0.169,45.42,-51.49,0
112071.0,-0.216,-0.284,-0.149,-47.31,124.64,0
112076.0,0.151,0.159,0.086,42.5,-60.39,0
112081.0,-0.17,-0.258,-0.12,-51.05,125.25,0
112086.0,0.115,0.24,0.083,59.45,-54.05,0
112091.0,-0.223,-0.198,-0.183,-34.49,129.32,0
112096.0,0.105,0.271,0.107,61.04,-44.46,0
112101.0,-0.151,-0.279,-0.163,-51.47,137.25,0
112106.0,0.223,0.326,0.129,51.78,-59.95,0
112111.0,-0.139,-0.31,-0.027,-65.48,100.95,0
112116.0,0.179,0.204,0.198,37.39,-42.16,0
112121.0,-0.101,-0.356,-0.156,-62.43,147.18,0
112126.0,0.146,0.331,0.107,61.34,-53.7,0
112131.0,-0.17,-0.124,-0.07,-33.92,112.36,0
112136.0,0.124,0.24,0.117,54.62,-46.8,0
112141.0,-0.12,-0.346,-0.139,-62.04,139.31,0
112146.0,0.127,0.312,0.105,62.21,-50.42,0
112151.0,-0.11,-0.231,-0.147,-51.6,143.05,0
112156.0,0.148,0.279,0.179,50.15,-39.64,0
112161.0,-0.06,-0.346,-0.003,-80.16,92.82,0
112166.0,0.091,0.281,0.112,62.83,-39.05,0
112171.0,-0.146,-0.181,-0.142,-41.65,134.13,0
112176.0,0.134,0.255,0.16,50.68,-39.95,0
112181.0,-0.156,-0.279,-0.082,-57.78,117.75,0
112186.0,0.158,0.264,0.09,55.45,-60.2,0
112191.0,-0.165,-0.167,-0.171,-35.07,135.88,0
112196.0,0.153,0.341,0.172,55.97,-41.7,0
112201.0,-0.041,-0.327,-0.015,-82.43,110.07,0
112206.0,0.076,0.305,0.09,68.77,-40.22,0
112211.0,-0.041,-0.248,-0.132,-60.85,162.83,0
112216.0,0.117,0.305,0.205,52.21,-29.71,0
112221.0,0.045,-0.332,0.047,-78.83,-43.77,0
112226.0,0.129,0.372,0.229,54.72,-29.39,0
112231.0,-0.043,-0.265,-0.039,-77.62,131.94,0
112236.0,0.103,0.389,0.134,66.56,-37.59,0
112241.0,-0.05,-0.356,-0.044,-79.39,130.88,0
112246.0,0.088,0.279,0.131,60.41,-33.99,0
112251.0,-0.072,-0.229,-0.159,-52.75,155.58,0
112256.0,0.072,0.312,0.102,68.17,-34.99,0
112261.0,-0.0,-0.308,-0.02,-86.34,179.54,0
112266.0,0.074,0.255,0.15,56.65,-26.24,0
112271.0,0.009,-0.186,0.014,-84.86,-34.3,0
112276.0,0.055,0.413,0.107,73.73,-27.13,0
112281.0,0.014,-0.313,0.021,-85.37,-34.09,0
112286.0,0.136,0.298,0.224,48.58,-31.27,0
112291.0,-0.015,-0.392,-0.106,-74.74,172.19,0
112296.0,0.05,0.374,0.086,75.15,-30.34,0
112301.0,-0.003,-0.234,0.057,-76.31,2.57,0
112306.0,0.072,0.214,0.157,51.03,-24.47,0
112311.0,0.055,-0.284,0.043,-76.26,-52.24,0
112316.0,-0.005,0.307,0.102,71.55,2.77,0
112321.0,0.029,-0.21,-0.056,-73.41,-152.81,0
112326.0,0.115,0.29,0.105,61.86,-47.6,0
112331.0,0.005,-0.291,0.031,-83.94,-8.61,0
112336.0,-0.017,0.367,0.114,72.52,8.42,0
112341.0,0.009,-0.184,-0.197,-42.96,-177.26,0
112346.0,0.124,0.243,0.114,55.15,-47.39,0
112351.0,0.043,-0.234,0.007,-79.48,-81.23,0
112356.0,-0.034,0.257,0.09,69.42,20.43,0
112361.0,0.117,-0.179,-0.017,-56.48,-98.41,0
112366.0,0.064,0.257,0.117,62.57,-28.91,0
112371.0,0.117,-0.179,0.095,-49.82,-50.9,0
112376.0,-0.029,0.276,0.169,58.1,9.68,0
112381.0,0.12,-0.251,-0.204,-46.66,-149.64,0
112386.0,0.067,0.228,0.007,73.59,-84.34,0
112391.0,0.033,-0.205,-0.008,-80.52,-103.07,0
112396.0,-0.096,0.185,0.098,53.53,44.5,0
112401.0,0.124,-0.155,-0.029,-50.47,-103.26,0
112406.0,-0.022,0.149,0.047,70.77,24.64,0
112411.0,0.122,-0.093,0.038,-35.95,-72.8,0
112416.0,-0.086,0.176,0.105,52.28,39.49,0
112421.0,0.124,-0.298,-0.166,-55.23,-143.13,0
112426.0,-0.01,0.173,0.033,78.78,16.46,0
112431.0,0.067,-0.045,-0.063,-25.97,-133.2,0
112436.0,-0.139,0.142,0.002,45.62,89.24,0
112441.0,0.124,-0.088,-0.013,-35.09,-95.75,0
112446.0,-0.117,0.044,-0.051,18.93,113.4,0
112451.0,0.17,-0.026,0.026,-8.46,-81.37,0
112456.0,-0.103,0.18,0.1,51.47,45.88,0
112461.0,-0.29,-0.332,-0.192,-43.67,123.53,0
112466.0,-0.043,0.037,0.098,18.98,23.9,0
112471.0,0.129,-0.076,-0.159,-20.34,-140.84,0
112476.0,-0.18,0.128,0.102,31.69,60.33,0
112481.0,0.177,0.025,-0.135,6.35,-127.26,0
112486.0,-0.096,0.046,0.196,11.99,26.11,0
112491.0,0.215,-0.061,-0.197,-11.89,-132.44,0
112496.0,-0.235,0.101,0.119,21.05,63.09,0
112501.0,-0.287,-0.239,-0.118,-37.53,112.3,0
112506.0,-0.137,0.223,0.155,47.24,41.38,0
112511.0,0.148,-0.27,-0.123,-54.5,-129.6,0
112516.0,-0.165,0.14,0.1,35.86,58.84,0
112521.0,0.23,-0.21,-0.192,-35.03,-129.91,0
112526.0,-0.161,0.245,0.134,49.56,50.26,0
112531.0,0.268,-0.296,-0.099,-46.03,-110.22,0
112536.0,-0.196,0.125,0.069,31.04,70.68,0
112541.0,-0.22,-0.298,-0.175,-46.66,128.5,0
112546.0,0.275,0.267,0.172,39.41,-58.02,0
112551.0,-0.297,-0.342,-0.12,-46.83,112.04,0
112556.0,0.28,0.245,0.134,38.31,-64.5,0
112561.0,-0.182,-0.191,-0.096,-42.79,117.88,0
112566.0,0.256,0.207,0.174,33.72,-55.77,0
112571.0,-0.273,-0.32,-0.06,-48.85,102.47,0
112576.0,0.254,0.121,0.196,20.61,-52.34,0
112581.0,-0.175,-0.224,-0.159,-43.52,132.19,0
112586.0,0.184,0.307,0.095,55.99,-62.67,0
112591.0,-0.256,-0.282,-0.151,-43.42,120.57,0
112596.0,0.201,0.135,0.126,29.61,-57.84,0
112601.0,-0.223,-0.267,-0.151,-44.78,124.19,0
112606.0,0.191,0.235,0.119,46.24,-58.09,0
112611.0,-0.256,-0.174,-0.187,-28.72,126.16,0
112616.0,0.203,0.135,0.208,24.89,-44.39,0
112621.0,-0.132,-0.275,-0.075,-61.1,119.56,0
112626.0,0.211,0.209,0.177,37.27,-50.01,0
112631.0,-0.235,-0.239,-0.163,-39.84,124.83,0
112636.0,0.151,0.233,0.148,47.82,-45.54,0
112641.0,-0.149,-0.31,-0.123,-58.17,129.54,0
112646.0,0.218,0.207,0.136,38.85,-58.02,0
112651.0,-0.252,-0.227,-0.185,-35.98,126.32,0
112656.0,0.23,0.221,0.186,36.78,-50.97,0
112661.0,-0.108,-0.231,-0.027,-64.34,104.0,0
112666.0,0.23,0.226,0.244,34.0,-43.31,0
112671.0,-0.216,-0.239,-0.147,-42.46,124.21,0
112676.0,0.22,0.152,0.11,31.66,-63.54,0
112681.0,-0.12,-0.215,-0.149,-48.31,141.18,0
112686.0,0.148,0.274,0.198,47.88,-36.81,0
112691.0,-0.144,-0.246,-0.111,-53.56,127.59,0
112696.0,0.175,0.116,0.155,26.36,-48.39,0
112701.0,-0.077,-0.222,-0.08,-63.51,136.02,0
112706.0,0.155,0.245,0.169,46.82,-42.54,0
112711.0,-0.177,-0.227,-0.099,-48.16,119.11,0
112716.0,0.234,0.255,0.184,40.51,-51.91,0
112721.0,-0.127,-0.251,-0.07,-59.94,118.85,0
112726.0,0.227,0.319,0.193,46.93,-49.61,0
112731.0,-0.117,-0.219,-0.058,-59.16,116.28,0
112736.0,0.112,0.219,0.1,55.48,-48.33,0
112741.0,-0.048,-0.315,-0.104,-70.1,155.1,0
112746.0,0.187,0.355,0.26,47.95,-35.62,0
112751.0,-0.091,-0.267,0.007,-71.13,85.84,0
112756.0,0.177,0.247,0.248,39.04,-35.47,0
112761.0,-0.038,-0.327,-0.036,-80.8,133.48,0
112766.0,0.16,0.298,0.184,50.68,-41.09,0
112771.0,-0.141,-0.258,-0.113,-54.91,128.65,0
112776.0,0.12,0.29,0.145,57.05,-39.41,0
112781.0,-0.077,-0.289,-0.077,-69.35,135.15,0
112786.0,0.184,0.286,0.179,48.04,-45.82,0
112791.0,-0.175,-0.265,-0.113,-51.83,122.88,0
112796.0,0.134,0.338,0.136,60.58,-44.58,0
112801.0,-0.005,-0.267,0.004,-88.61,49.48,0
112806.0,0.158,0.3,0.186,50.87,-40.29,0
112811.0,-0.146,-0.246,-0.094,-54.74,122.72,0
112816.0,0.16,0.214,0.148,44.45,-47.3,0
112821.0,-0.036,-0.26,-0.096,-68.43,159.47,0
112826.0,0.064,0.312,0.16,61.08,-21.97,0
112831.0,-0.005,-0.193,0.031,-80.89,9.2,0
112836.0,0.127,0.24,0.184,47.1,-34.59,0
112841.0,-0.134,-0.325,-0.137,-59.44,135.59,0
112846.0,0.139,0.319,0.102,61.63,-53.57,0
112851.0,-0.108,-0.236,-0.106,-57.38,134.47,0
112856.0,0.029,0.338,0.138,67.35,-11.67,0
112861.0,-0.067,-0.344,-0.104,-70.26,147.01,0
112866.0,0.084,0.281,0.093,66.02,-42.02,0
112871.0,-0.036,-0.255,-0.101,-67.2,160.37,0
112876.0,0.009,0.417,0.107,75.55,-5.02,0
112881.0,0.021,-0.243,-0.015,-83.88,-124.91,0
112886.0,0.182,0.221,0.22,37.78,-39.61,0
112891.0,0.017,-0.306,-0.025,-84.47,-145.88,0
112896.0,0.146,0.408,0.213,57.7,-34.47,0
112901.0,0.048,-0.229,0.093,-65.5,-27.21,0
112906.0,0.074,0.329,0.105,68.68,-35.25,0
112911.0,0.029,-0.313,-0.036,-81.58,-141.93,0
112916.0,0.009,0.35,0.138,68.41,-3.9,0
112921.0,0.045,-0.27,-0.01,-80.23,-102.6,0
112926.0,0.091,0.295,0.126,62.21,-35.71,0
112931.0,0.038,-0.15,0.011,-75.14,-73.35,0
112936.0,0.017,0.279,0.126,65.42,-7.49,0
112941.0,0.033,-0.21,-0.211,-44.46,-171.03,0
112946.0,0.06,0.281,0.026,76.97,-66.64,0
112951.0,0.005,-0.184,-0.02,-83.7,-166.79,0
112956.0,-0.077,0.247,0.088,64.73,41.09,0
112961.0,0.026,-0.207,-0.034,-78.3,-142.47,0
112966.0,-0.01,0.247,0.028,83.13,19.07,0
112971.0,0.019,-0.227,-0.046,-77.6,-157.59,0
112976.0,-0.065,0.346,0.026,78.59,68.31,0
112981.0,0.088,-0.188,-0.175,-43.8,-153.24,0
112986.0,-0.007,0.204,0.119,59.7,3.53,0
112991.0,0.06,-0.215,-0.06,-68.42,-135.34,0
112996.0,-0.05,0.245,-0.046,74.42,132.4,0
113001.0,0.012,-0.093,-0.065,-54.41,-169.73,0
113006.0,-0.041,0.152,0.066,62.77,31.58,0
113011.0,0.108,-0.069,-0.029,-31.62,-105.23,0
113016.0,-0.125,0.211,0.047,57.77,69.21,0
113021.0,0.117,-0.308,-0.125,-60.91,-136.87,0
113026.0,-0.065,0.135,0.033,61.67,63.04,0
113031.0,0.017,-0.117,-0.046,-67.21,-160.18,0
113036.0,-0.086,0.286,-0.029,72.3,108.74,0
113041.0,0.139,-0.128,0.009,-42.75,-86.28,0
113046.0,-0.094,0.132,-0.013,54.54,97.63,0
113051.0,0.079,-0.145,-0.151,-40.39,-152.49,0
113056.0,-0.165,0.137,-0.025,39.39,98.43,0
113061.0,-0.335,-0.306,-0.185,-38.6,118.87,0
113066.0,-0.11,0.03,0.081,12.18,53.76,0
113071.0,0.196,-0.119,-0.185,-23.8,-133.31,0
113076.0,-0.132,0.101,0.083,33.03,57.73,0
113081.0,0.136,0.025,-0.216,5.53,-147.75,0
113086.0,-0.098,0.063,0.138,20.38,35.41,0
113091.0,0.129,-0.059,-0.087,-20.79,-123.89,0
113096.0,-0.158,0.041,0.124,11.67,51.92,0
113101.0,-0.314,-0.172,-0.204,-24.63,123.04,0
