time_ms,accel_x,accel_y,accel_z,pitch,roll,sync
595945.0,-0.019,-0.002,0.008,-4.67,67.33,0
595950.0,-0.021,0.008,0.034,11.09,31.9,0
595955.0,-0.019,0.015,0.013,33.51,56.14,0
595960.0,-0.033,-0.03,0.025,-36.28,53.46,0
595965.0,0.005,0.017,0.034,26.8,-8.35,0
595970.0,-0.009,-0.011,-0.028,-20.86,161.57,0
595975.0,-0.007,-0.004,-0.009,-19.88,141.91,0
595980.0,0.012,0.008,0.022,17.28,-28.74,0
595985.0,0.012,0.003,0.065,2.68,-10.58,0
595990.0,0.01,-0.011,-0.018,-28.31,-151.97,0
595995.0,0.017,-0.009,0.02,-18.71,-40.54,0
596000.0,-0.021,0.034,0.01,55.35,64.21,0
596005.0,0.007,-0.002,0.029,-3.16,-14.15,0
596010.0,0.005,-0.009,0.006,-49.91,-42.4,0
596015.0,0.022,0.008,0.02,15.0,-47.63,0
596020.0,0.005,-0.018,-0.006,-66.05,-142.13,0
596025.0,-0.002,-0.04,-0.028,-54.9,175.6,0
596030.0,0.015,0.02,-0.014,44.83,-133.06,0
596035.0,-0.012,0.044,0.008,72.11,56.04,0
596040.0,0.005,0.029,0.032,42.41,-8.97,0
596045.0,0.027,-0.002,0.008,-3.46,-73.44,0
596050.0,0.0,-0.05,0.008,-80.94,-1.74,0
596055.0,-0.019,-0.009,0.006,-24.21,73.77,0
596060.0,0.015,-0.006,0.006,-22.5,-69.34,0
596065.0,0.007,0.001,-0.011,3.05,-146.59,0
596070.0,0.007,0.02,-0.009,59.82,-140.04,0
596075.0,-0.005,-0.006,-0.009,-32.99,152.82,0
596080.0,-0.05,0.022,0.02,22.47,68.34,0
596085.0,-0.012,-0.014,0.001,-49.26,86.5,0
596090.0,-0.005,-0.028,0.022,-50.95,11.55,0
596095.0,-0.021,0.001,-0.011,1.71,117.84,0
596100.0,-0.017,-0.009,0.037,-12.43,24.27,0
596105.0,-0.012,-0.016,0.034,-23.9,18.91,0
596110.0,-0.002,-0.011,0.032,-19.42,3.87,0
596115.0,-0.007,0.003,0.032,5.46,12.3,0
596120.0,-0.002,0.022,0.032,34.9,3.87,0
596125.0,0.036,0.015,-0.004,22.52,-96.42,0
596130.0,0.017,0.02,0.013,43.13,-53.26,0
596135.0,0.017,0.013,0.006,35.38,-72.05,0
596140.0,0.0,0.003,0.003,44.92,-4.4,0
596145.0,-0.009,0.02,-0.002,64.48,100.18,0
596150.0,0.005,0.017,0.013,52.01,-21.62,0
596155.0,-0.021,-0.014,-0.004,-32.17,100.81,0
596160.0,-0.002,0.006,0.013,23.16,9.64,0
596165.0,-0.014,0.008,-0.002,29.05,96.77,0
596170.0,0.005,0.006,0.027,11.32,-10.53,0
596175.0,-0.031,0.017,0.008,28.73,75.65,0
596180.0,-0.024,0.017,0.039,20.95,31.27,0
596185.0,0.003,0.006,-0.011,25.48,-166.83,0
596190.0,0.005,-0.047,0.015,-71.37,-18.43,0
596195.0,-0.021,-0.006,0.022,-11.85,43.74,0
596200.0,-0.021,-0.038,0.013,-56.58,59.23,0
596205.0,-0.002,-0.04,0.017,-66.23,7.03,0
596210.0,0.041,-0.016,0.044,-14.98,-43.06,0
596215.0,0.003,-0.014,-0.006,-62.91,-157.84,0
596220.0,-0.024,-0.006,-0.009,-14.33,110.49,0
596225.0,0.01,-0.033,0.032,-44.55,-17.13,0
596230.0,-0.017,-0.004,0.008,-12.53,64.44,0
596235.0,-0.009,0.001,0.003,4.17,71.57,0
596240.0,0.012,-0.014,0.032,-21.81,-20.98,0
596245.0,0.0,-0.014,0.022,-31.5,-0.62,0
596250.0,0.01,0.003,0.001,17.55,-85.82,0
596255.0,-0.045,0.001,0.027,0.78,59.13,0
596260.0,-0.014,0.008,0.034,12.04,22.42,0
596265.0,0.027,0.022,-0.006,39.15,-103.67,0
596270.0,-0.033,-0.023,-0.016,-32.15,115.74,0
596275.0,0.015,0.001,0.015,1.96,-44.08,0
596280.0,-0.005,0.025,0.044,29.24,5.93,0
596285.0,-0.007,-0.002,-0.016,-5.48,156.6,0
596290.0,0.048,0.001,0.034,0.7,-54.57,0
596295.0,-0.007,-0.014,0.001,-62.91,84.1,0
596300.0,-0.009,0.008,0.017,21.74,28.11,0
596305.0,0.003,-0.006,0.013,-26.51,-11.73,0
596310.0,-0.017,-0.028,0.01,-55.21,58.07,0
596315.0,0.022,0.003,0.017,6.36,-51.26,0
596320.0,-0.002,-0.057,-0.006,-83.15,161.57,0
596325.0,-0.019,0.008,0.01,20.15,61.44,0
596330.0,-0.012,0.015,-0.009,45.74,127.06,0
596335.0,-0.005,0.01,0.003,61.84,55.63,0
596340.0,0.005,-0.016,-0.009,-57.58,-150.42,0
596345.0,-0.002,0.02,0.015,52.52,8.13,0
596350.0,0.017,0.015,-0.038,20.08,-155.67,0
596355.0,-0.026,0.013,0.02,21.15,52.71,0
596360.0,-0.014,-0.002,-0.014,-4.88,134.01,0
596365.0,-0.009,0.032,-0.018,57.02,153.14,0
596370.0,-0.038,-0.016,0.01,-22.13,74.87,0
596375.0,-0.002,-0.004,0.022,-10.31,5.53,0
596380.0,0.012,0.022,0.027,36.88,-24.29,0
596385.0,-0.009,-0.018,0.027,-32.79,19.04,0
596390.0,-0.002,0.022,0.044,26.91,2.82,0
596395.0,0.041,-0.035,0.01,-39.82,-75.89,0
596400.0,0.012,0.006,0.01,19.02,-49.86,0
596405.0,0.022,-0.03,0.013,-50.33,-59.78,0
596410.0,0.003,-0.002,0.027,-3.53,-5.56,0
596415.0,0.017,-0.011,-0.014,-27.3,-128.76,0
596420.0,0.012,0.001,-0.006,2.98,-117.9,0
596425.0,0.017,0.006,-0.002,17.87,-95.63,0
596430.0,-0.012,-0.03,-0.04,-36.12,163.65,0
596435.0,-0.012,0.015,0.032,23.96,20.23,0
596440.0,0.024,-0.018,0.001,-37.31,-88.3,0
596445.0,-0.038,-0.004,0.039,-4.27,44.29,0
596450.0,0.034,-0.016,-0.014,-23.78,-112.01,0
596455.0,-0.024,-0.016,-0.026,-24.68,137.22,0
596460.0,0.003,-0.011,0.006,-61.52,-25.56,0
596465.0,0.007,0.01,0.001,54.08,-84.47,0
596470.0,-0.021,-0.033,0.017,-49.96,50.64,0
596475.0,-0.009,0.008,0.025,16.68,20.74,0
596480.0,-0.007,-0.016,0.039,-22.03,10.09,0
596485.0,0.007,-0.014,-0.021,-31.68,-160.39,0
596490.0,-0.033,-0.009,0.017,-13.26,62.29,0
596495.0,0.0,-0.002,-0.018,-5.19,-179.26,0
596500.0,0.003,-0.016,-0.014,-49.09,-169.08,0
596505.0,-0.019,0.001,-0.004,2.13,102.14,0
596510.0,0.01,-0.016,0.008,-51.85,-51.17,0
596515.0,-0.012,0.027,0.008,62.4,56.04,0
596520.0,-0.009,0.001,-0.023,1.64,158.1,0
596525.0,-0.007,-0.014,0.013,-43.33,28.69,0
596530.0,0.027,-0.026,0.039,-28.48,-34.25,0
596535.0,-0.019,0.017,0.003,42.36,80.66,0
596540.0,0.0,0.015,-0.009,59.56,-178.45,0
596545.0,0.024,-0.006,0.044,-7.36,-28.89,0
596550.0,-0.007,-0.014,-0.014,-41.71,153.03,0
596555.0,0.012,0.01,-0.006,36.69,-117.9,0
596560.0,-0.002,0.025,0.037,33.9,3.37,0
596565.0,0.012,0.003,0.01,11.03,-49.86,0
596570.0,-0.019,-0.002,-0.016,-3.87,130.3,0
596575.0,0.003,-0.004,0.027,-8.52,-5.56,0
596580.0,-0.024,0.003,-0.026,5.1,137.22,0
596585.0,0.01,-0.014,0.017,-34.25,-29.32,0
596590.0,-0.009,0.006,0.013,19.27,36.35,0
596595.0,0.012,0.006,0.027,10.51,-24.29,0
596600.0,0.0,-0.011,0.015,-36.72,-0.91,0
596605.0,-0.009,-0.006,0.001,-34.62,85.6,0
596610.0,0.007,0.006,0.041,7.46,-10.16,0
596615.0,-0.014,-0.014,0.049,-15.09,16.21,0
596620.0,0.01,0.01,0.037,15.19,-15.0,0
596625.0,0.005,-0.002,0.017,-5.27,-16.05,0
596630.0,-0.009,0.017,0.01,51.51,42.21,0
596635.0,-0.005,-0.004,0.003,-36.44,55.63,0
596640.0,-0.005,-0.006,0.003,-49.55,55.63,0
596645.0,0.017,-0.03,0.037,-36.98,-24.89,0
596650.0,0.031,-0.023,0.049,-21.88,-32.84,0
596655.0,0.034,0.003,0.049,3.01,-34.78,0
596660.0,-0.002,-0.006,-0.006,-43.49,161.57,0
596665.0,-0.021,-0.028,-0.026,-40.05,140.25,0
596670.0,0.017,0.003,0.003,10.21,-79.63,0
596675.0,0.01,-0.026,-0.018,-50.81,-151.97,0
596680.0,0.024,0.015,0.029,21.6,-39.39,0
596685.0,-0.024,-0.026,0.041,-28.23,29.78,0
596690.0,0.0,0.034,0.022,56.96,-0.62,0
596695.0,-0.019,0.003,0.01,8.22,61.44,0
596700.0,0.005,-0.002,0.003,-15.82,-58.25,0
596705.0,-0.021,0.01,0.029,15.81,35.89,0
596710.0,0.012,0.022,0.034,31.49,-19.63,0
596715.0,-0.019,0.01,0.027,17.32,34.96,0
596720.0,0.022,0.02,0.025,31.13,-41.46,0
596725.0,-0.036,-0.009,0.02,-12.24,60.88,0
596730.0,0.017,0.013,0.027,21.66,-32.14,0
596735.0,-0.014,0.006,-0.05,6.1,164.09,0
596740.0,-0.012,-0.011,0.003,-42.83,75.14,0
596745.0,0.005,-0.03,-0.03,-44.61,-170.61,0
596750.0,-0.007,-0.009,-0.03,-15.86,167.14,0
596755.0,0.024,0.008,0.003,17.96,-82.67,0
596760.0,-0.005,-0.033,0.013,-67.66,19.72,0
596765.0,-0.012,-0.014,0.041,-17.59,15.81,0
596770.0,-0.002,0.02,0.013,57.07,9.64,0
596775.0,0.007,0.015,0.003,61.92,-67.25,0
596780.0,0.027,0.01,-0.018,17.66,-124.75,0
596785.0,0.007,-0.014,-0.023,-29.24,-162.28,0
596790.0,0.0,-0.011,0.001,-86.15,-18.43,0
596795.0,0.015,0.01,0.017,24.32,-39.88,0
596800.0,0.01,-0.004,0.001,-22.47,-85.82,0
596805.0,-0.014,-0.009,-0.026,-16.85,151.13,0
596810.0,0.0,0.013,-0.04,17.61,-179.66,0
596815.0,0.003,-0.026,-0.018,-53.98,-171.87,0
596820.0,0.005,0.02,0.015,51.34,-18.43,0
596825.0,-0.019,0.013,0.025,22.21,37.49,0
596830.0,0.012,0.02,0.037,27.23,-18.44,0
596835.0,-0.019,0.017,-0.002,42.63,95.07,0
596840.0,-0.017,0.003,0.02,6.87,39.74,0
596845.0,-0.019,-0.006,-0.026,-11.47,143.56,0
596850.0,-0.002,0.01,0.008,51.5,15.26,0
596855.0,-0.024,-0.011,0.022,-19.09,46.79,0
596860.0,0.012,-0.004,-0.014,-12.53,-138.18,0
596865.0,0.007,-0.009,0.027,-17.52,-15.34,0
596870.0,0.022,-0.006,0.02,-12.36,-47.63,0
596875.0,-0.026,0.027,0.02,39.52,52.71,0
596880.0,0.024,0.015,-0.014,28.51,-119.44,0
596885.0,0.003,0.008,-0.004,58.47,-147.1,0
596890.0,-0.031,-0.018,-0.014,-28.63,113.84,0
596895.0,-0.009,0.02,-0.016,46.95,149.8,0
596900.0,-0.002,-0.021,0.017,-49.79,7.03,0
596905.0,0.022,0.006,-0.002,14.14,-94.4,0
596910.0,0.01,0.013,0.013,38.34,-37.73,0
596915.0,-0.002,-0.004,-0.018,-12.37,173.33,0
596920.0,0.003,-0.023,0.02,-49.2,-7.55,0
596925.0,0.012,0.001,-0.006,2.98,-117.9,0
596930.0,-0.007,-0.026,0.029,-40.25,13.27,0
596935.0,-0.012,0.02,-0.014,47.84,139.32,0
596940.0,-0.031,-0.004,-0.002,-7.5,93.11,0
596945.0,-0.014,0.001,0.01,2.35,53.92,0
596950.0,-0.017,0.001,0.02,1.59,39.74,0
596955.0,0.003,-0.009,0.006,-55.43,-25.56,0
596960.0,0.01,-0.011,0.034,-17.53,-16.0,0
596965.0,0.005,-0.009,0.039,-12.69,-7.34,0
596970.0,-0.007,0.029,0.003,75.51,65.86,0
596975.0,-0.019,-0.014,-0.03,-20.86,148.12,0
596980.0,0.005,-0.004,0.01,-19.56,-26.03,0
596985.0,0.017,0.046,0.034,50.4,-26.4,0
596990.0,-0.002,-0.035,0.029,-50.0,4.19,0
596995.0,0.022,0.008,0.01,18.15,-64.71,0
597000.0,-0.009,0.015,0.015,40.37,31.76,0
597005.0,0.005,0.003,0.003,27.76,-58.25,0
597010.0,0.024,-0.009,-0.026,-14.11,-136.65,0
597015.0,-0.017,-0.014,0.013,-33.23,52.47,0
597020.0,-0.002,-0.011,-0.011,-44.48,169.16,0
597025.0,-0.005,0.017,0.056,17.34,4.66,0
597030.0,-0.009,-0.006,0.017,-18.07,28.11,0
597035.0,0.0,-0.009,0.034,-14.51,-0.4,0
597040.0,0.019,0.001,0.008,1.96,-67.84,0
597045.0,0.01,0.008,0.015,23.7,-33.06,0
597050.0,0.029,0.01,0.008,18.92,-74.75,0
597055.0,-0.005,0.003,0.003,29.45,55.63,0
597060.0,-0.014,-0.023,-0.009,-54.32,122.09,0
597065.0,-0.009,0.003,0.003,17.55,71.57,0
597070.0,0.0,0.015,0.01,55.68,-1.33,0
597075.0,0.034,-0.014,-0.033,-16.17,-134.18,0
597080.0,0.0,-0.011,0.015,-36.72,-0.91,0
597085.0,-0.017,-0.002,-0.006,-5.4,111.37,0
597090.0,0.015,-0.002,0.015,-4.56,-44.08,0
597095.0,0.034,-0.006,0.058,-5.49,-30.12,0
597100.0,-0.002,0.008,-0.018,23.06,173.33,0
597105.0,-0.012,-0.038,0.017,-60.75,33.87,0
597110.0,-0.009,0.032,0.02,55.41,25.17,0
597115.0,-0.005,-0.006,0.003,-49.55,55.63,0
597120.0,0.0,0.001,0.013,3.24,-1.08,0
597125.0,0.01,0.025,-0.016,52.67,-148.54,0
597130.0,-0.009,0.006,-0.011,20.64,140.32,0
597135.0,0.0,0.006,-0.038,8.33,-179.64,0
597140.0,0.0,0.008,-0.03,14.57,-179.55,0
597145.0,-0.017,0.008,0.046,9.15,19.67,0
597150.0,0.007,-0.002,-0.002,-12.42,-102.73,0
597155.0,0.003,-0.006,-0.009,-34.97,-163.44,0
597160.0,-0.017,-0.002,-0.014,-4.47,129.56,0
597165.0,-0.002,-0.004,-0.011,-19.56,169.16,0
597170.0,0.0,0.017,-0.016,47.45,-179.15,0
597175.0,-0.009,-0.023,0.041,-28.68,12.7,0
597180.0,0.012,0.034,0.039,39.94,-17.37,0
597185.0,0.017,-0.021,0.02,-38.54,-40.54,0
597190.0,-0.017,-0.004,0.008,-12.53,64.44,0
597195.0,-0.005,-0.014,-0.023,-29.97,168.92,0
597200.0,0.012,-0.006,0.022,-14.28,-28.74,0
597205.0,-0.014,-0.004,0.037,-5.92,21.09,0
597210.0,0.0,0.001,0.001,43.5,-18.43,0
597215.0,0.005,-0.002,-0.016,-5.69,-162.6,0
597220.0,-0.002,0.013,0.025,27.14,4.99,0
597225.0,0.01,0.01,-0.004,44.09,-112.52,0
597230.0,-0.009,0.003,0.003,17.55,71.57,0
597235.0,0.017,0.02,-0.04,24.58,-156.97,0
597240.0,-0.019,0.006,0.01,14.34,61.44,0
597245.0,0.01,0.015,0.025,29.61,-21.71,0
597250.0,-0.017,-0.002,-0.018,-3.87,138.14,0
597255.0,-0.021,-0.023,-0.004,-46.95,100.81,0
597260.0,-0.014,0.017,0.006,49.06,68.7,0
597265.0,-0.002,-0.018,0.013,-55.08,9.64,0
597270.0,-0.002,0.017,0.032,28.71,3.87,0
597275.0,0.029,0.013,-0.016,20.97,-118.98,0
597280.0,-0.012,0.029,0.013,59.59,42.76,0
597285.0,0.007,0.015,-0.004,60.7,-118.74,0
597290.0,0.027,-0.018,0.022,-28.0,-50.04,0
597295.0,0.005,-0.018,0.008,-63.07,-32.47,0
597300.0,-0.017,-0.016,0.037,-21.76,24.27,0
597305.0,0.0,-0.002,-0.014,-7.0,-179.0,0
597310.0,-0.017,-0.006,0.041,-8.25,21.74,0
597315.0,0.003,0.029,0.008,74.21,-18.44,0
597320.0,0.017,0.008,0.006,23.85,-72.05,0
597325.0,0.015,-0.002,0.017,-4.21,-39.88,0
597330.0,0.012,0.017,-0.026,31.63,-154.52,0
597335.0,-0.007,0.003,-0.004,21.14,120.38,0
597340.0,-0.031,-0.018,0.02,-26.66,57.24,0
597345.0,-0.009,0.017,0.015,44.57,31.76,0
597350.0,0.015,0.003,0.02,7.19,-36.31,0
597355.0,-0.017,0.001,0.02,1.59,39.74,0
597360.0,0.003,0.003,-0.002,44.91,-122.48,0
597365.0,-0.019,-0.002,0.044,-2.01,23.35,0
597370.0,-0.024,-0.021,0.032,-27.69,36.66,0
597375.0,-0.005,-0.028,-0.011,-66.57,157.99,0
597380.0,-0.007,-0.021,0.003,-69.93,65.86,0
597385.0,0.01,0.032,0.008,68.41,-51.17,0
597390.0,0.005,0.013,0.003,65.02,-58.25,0
597395.0,0.007,0.003,0.013,11.96,-30.32,0
597400.0,-0.031,-0.023,0.02,-32.31,57.24,0
597405.0,0.012,0.013,0.039,17.24,-17.37,0
597410.0,-0.002,0.022,0.006,75.13,21.37,0
597415.0,0.005,-0.018,0.025,-36.22,-11.52,0
597420.0,0.007,-0.035,-0.009,-71.82,-140.04,0
597425.0,-0.007,-0.011,0.027,-21.94,14.39,0
597430.0,0.01,0.01,0.034,16.12,-16.0,0
597435.0,-0.007,-0.011,0.017,-30.89,21.67,0
597440.0,-0.007,-0.009,0.037,-13.37,10.73,0
597445.0,-0.019,0.02,0.02,35.92,43.59,0
597450.0,-0.009,0.02,0.013,51.59,36.35,0
597455.0,-0.002,-0.009,-0.009,-44.18,166.33,0
597460.0,-0.005,0.017,0.01,57.22,23.84,0
597465.0,0.007,-0.014,0.013,-42.87,-30.32,0
597470.0,-0.007,0.015,0.025,30.49,15.72,0
597475.0,0.003,-0.006,-0.018,-19.14,-171.87,0
597480.0,0.003,0.008,0.015,27.29,-9.9,0
597485.0,0.024,-0.018,-0.033,-24.34,-143.6,0
597490.0,-0.024,-0.042,-0.006,-59.9,105.26,0
597495.0,0.012,0.006,0.025,11.32,-26.34,0
597500.0,0.012,0.034,0.001,70.34,-86.63,0
597505.0,0.007,0.02,0.015,49.77,-26.2,0
597510.0,-0.002,0.008,0.008,43.97,15.26,0
597515.0,0.012,-0.026,-0.009,-59.51,-125.96,0
597520.0,-0.028,-0.011,0.006,-21.2,79.06,0
597525.0,-0.019,0.008,0.013,19.13,56.14,0
597530.0,-0.009,0.008,0.022,18.12,22.75,0
597535.0,-0.005,0.017,0.013,52.36,19.72,0
597540.0,-0.007,-0.002,0.061,-1.57,6.54,0
597545.0,0.01,0.017,0.003,59.49,-72.41,0
597550.0,0.0,-0.035,-0.011,-72.26,-178.78,0
597555.0,0.005,0.003,-0.004,25.7,-128.99,0
597560.0,0.003,-0.002,-0.004,-19.07,-147.1,0
597565.0,-0.005,-0.028,0.032,-41.05,8.13,0
597570.0,0.007,0.022,0.061,20.05,-6.99,0
597575.0,-0.024,0.003,-0.021,5.63,131.31,0
597580.0,0.005,0.001,-0.023,1.73,-167.78,0
597585.0,0.024,0.032,0.006,52.09,-77.17,0
597590.0,0.0,0.039,0.015,68.87,-0.91,0
597595.0,0.019,0.001,0.013,1.78,-56.8,0
597600.0,0.022,0.003,-0.002,8.11,-94.4,0
597605.0,0.007,0.017,-0.006,60.61,-131.06,0
597610.0,-0.005,-0.033,0.01,-71.06,23.84,0
597615.0,-0.012,0.006,0.015,16.08,37.88,0
597620.0,-0.019,0.001,0.034,1.05,28.92,0
597625.0,-0.007,0.015,-0.009,53.27,141.91,0
597630.0,-0.007,0.029,-0.016,59.31,156.6,0
597635.0,-0.007,-0.03,-0.018,-57.06,159.36,0
597640.0,-0.012,0.013,0.029,21.82,21.72,0
597645.0,0.017,-0.03,0.02,-49.3,-40.54,0
597650.0,-0.026,-0.009,0.034,-11.63,37.32,0
597655.0,0.024,-0.014,0.044,-15.25,-28.89,0
597660.0,-0.002,-0.002,-0.016,-5.91,172.35,0
597665.0,0.024,0.015,-0.014,28.51,-119.44,0
597670.0,0.005,-0.038,0.01,-73.05,-26.03,0
597675.0,-0.002,-0.018,-0.002,-81.58,127.88,0
597680.0,0.043,0.013,-0.016,15.36,-110.31,0
597685.0,-0.04,-0.004,-0.014,-5.44,108.64,0
597690.0,-0.002,-0.004,0.029,-7.85,4.19,0
597695.0,-0.012,-0.035,0.032,-46.04,20.23,0
597700.0,0.003,-0.009,0.053,-9.41,-2.82,0
597705.0,-0.002,0.003,-0.002,48.74,127.88,0
597710.0,0.01,-0.04,-0.026,-55.54,-159.03,0
597715.0,0.029,-0.004,0.017,-6.86,-58.9,0
597720.0,-0.024,0.006,-0.018,10.39,127.88,0
597725.0,-0.007,-0.028,0.032,-40.68,12.3,0
597730.0,0.005,-0.016,-0.016,-43.66,-162.6,0
597735.0,-0.012,0.008,0.008,29.19,56.04,0
597740.0,-0.007,0.003,0.027,6.36,14.39,0
597745.0,-0.031,0.039,0.003,51.5,84.25,0
597750.0,-0.019,0.017,0.044,20.11,23.35,0
597755.0,-0.021,0.034,-0.002,58.02,94.5,0
597760.0,-0.033,0.001,0.015,1.13,65.62,0
597765.0,0.003,-0.004,-0.018,-12.33,-171.87,0
597770.0,-0.014,0.032,0.006,64.54,68.7,0
597775.0,0.0,-0.028,-0.004,-81.72,-176.63,0
597780.0,-0.021,-0.011,0.029,-17.2,35.89,0
597785.0,0.0,0.015,0.001,87.13,-18.43,0
597790.0,0.019,0.003,0.058,2.91,-18.43,0
597795.0,0.005,-0.033,0.049,-33.87,-5.91,0
597800.0,0.029,-0.009,0.022,-13.63,-52.46,0
597805.0,-0.019,-0.014,0.001,-35.79,87.83,0
597810.0,-0.017,0.003,0.034,4.68,25.76,0
597815.0,-0.009,-0.028,0.006,-68.84,59.47,0
597820.0,0.022,-0.014,0.015,-27.25,-55.31,0
597825.0,-0.002,-0.009,0.001,-75.62,71.57,0
597830.0,0.0,-0.021,0.037,-29.62,-0.37,0
597835.0,-0.009,-0.026,-0.002,-69.68,100.18,0
597840.0,-0.007,0.027,0.006,71.86,51.58,0
597845.0,0.003,0.02,0.006,72.93,-25.56,0
597850.0,-0.005,-0.009,0.032,-15.4,8.13,0
597855.0,-0.007,0.01,0.013,35.44,28.69,0
597860.0,0.017,0.02,0.037,26.2,-24.89,0
597865.0,-0.012,0.01,-0.03,17.53,158.9,0
597870.0,0.027,-0.002,0.022,-2.77,-50.04,0
597875.0,-0.028,-0.004,0.015,-7.2,62.1,0
597880.0,-0.014,0.006,-0.006,19.52,114.59,0
597885.0,-0.012,0.003,-0.002,14.72,98.13,0
597890.0,0.0,0.008,0.017,24.32,-0.78,0
597895.0,-0.002,-0.009,0.008,-47.25,15.26,0
597900.0,-0.012,-0.018,-0.018,-40.15,147.53,0
597905.0,-0.005,-0.035,0.017,-62.84,14.59,0
597910.0,0.024,-0.016,-0.04,-18.95,-148.84,0
597915.0,0.005,-0.03,-0.035,-40.54,-171.87,0
597920.0,0.012,0.001,0.049,0.82,-14.1,0
597925.0,-0.007,0.01,-0.004,51.98,120.38,0
597930.0,0.031,0.006,0.003,9.91,-84.33,0
597935.0,-0.024,0.029,0.01,48.73,66.52,0
597940.0,0.012,0.008,0.017,20.33,-34.94,0
597945.0,-0.007,-0.009,-0.028,-17.06,166.08,0
597950.0,-0.002,0.025,-0.011,65.08,169.16,0
597955.0,0.01,0.02,-0.026,35.92,-159.03,0
597960.0,0.024,0.025,0.022,36.88,-47.36,0
597965.0,0.007,0.017,-0.038,24.52,-168.83,0
597970.0,-0.028,-0.002,0.006,-3.31,79.06,0
597975.0,0.012,-0.002,0.02,-4.11,-31.57,0
597980.0,-0.002,0.003,0.013,13.6,9.64,0
597985.0,-0.007,0.029,0.013,63.84,28.69,0
597990.0,-0.002,0.001,0.015,2.7,8.13,0
597995.0,-0.002,-0.023,0.025,-43.17,4.99,0
598000.0,0.003,0.001,-0.002,12.96,-122.48,0
598005.0,0.017,-0.002,0.068,-1.37,-14.08,0
598010.0,0.046,0.01,-0.018,11.79,-111.96,0
598015.0,-0.014,0.013,-0.011,35.09,128.54,0
598020.0,0.017,-0.023,0.006,-52.43,-72.05,0
598025.0,0.005,-0.014,0.032,-22.94,-8.97,0
598030.0,-0.007,-0.006,0.02,-17.07,19.26,0
598035.0,-0.019,-0.014,0.02,-26.45,43.59,0
598040.0,-0.017,-0.038,-0.023,-52.83,144.58,0
598045.0,-0.002,-0.002,-0.018,-5.16,173.33,0
598050.0,-0.009,-0.004,-0.023,-9.24,158.1,0
598055.0,-0.021,0.017,0.061,15.23,19.38,0
598060.0,0.0,0.015,-0.004,74.87,-176.63,0
598065.0,0.017,0.025,0.01,51.14,-58.8,0
598070.0,-0.019,0.027,0.017,46.41,47.26,0
598075.0,0.01,-0.04,0.02,-61.0,-26.29,0
598080.0,0.0,0.006,0.046,6.8,-0.3,0
598085.0,0.012,-0.009,0.013,-26.7,-43.9,0
598090.0,0.022,0.013,0.008,28.7,-70.07,0
598095.0,-0.007,0.001,0.003,5.39,65.86,0
598100.0,0.022,0.001,0.008,1.78,-70.07,0
598105.0,0.015,0.015,0.01,40.17,-54.82,0
598110.0,0.034,0.017,0.037,19.33,-42.66,0
598115.0,0.031,0.003,-0.016,5.05,-117.09,0
598120.0,0.0,-0.002,0.008,-11.97,-1.74,0
598125.0,0.024,0.013,-0.033,17.3,-143.6,0
598130.0,-0.009,0.006,-0.006,25.87,124.7,0
598135.0,-0.009,-0.018,0.001,-63.07,85.6,0
598140.0,0.015,0.017,0.003,49.49,-77.97,0
598145.0,-0.005,0.013,0.015,38.85,16.78,0
598150.0,-0.009,-0.006,-0.002,-34.27,100.18,0
598155.0,-0.009,-0.023,0.032,-34.99,16.34,0
598160.0,-0.019,-0.011,0.008,-28.77,67.33,0
598165.0,0.012,0.001,0.003,3.26,-75.7,0
598170.0,-0.005,0.017,0.027,32.5,9.54,0
598175.0,-0.028,-0.014,-0.026,-19.6,131.96,0
598180.0,0.003,-0.016,0.032,-26.66,-4.73,0
598185.0,0.003,-0.006,0.02,-17.87,-7.55,0
598190.0,0.017,-0.006,0.001,-20.8,-87.58,0
598195.0,-0.017,0.013,0.001,37.5,87.51,0
598200.0,-0.009,-0.002,0.015,-5.4,31.76,0
598205.0,0.012,0.029,-0.016,55.61,-142.72,0
598210.0,0.012,0.025,-0.011,56.05,-132.66,0
598215.0,-0.028,0.029,-0.011,43.87,111.55,0
598220.0,0.005,-0.016,0.001,-72.43,-81.87,0
598225.0,0.003,0.013,-0.002,76.18,-122.48,0
598230.0,0.012,0.013,0.013,35.78,-43.9,0
598235.0,0.012,-0.033,-0.04,-38.12,-163.02,0
598240.0,0.015,-0.057,0.008,-73.69,-61.59,0
598245.0,0.041,-0.028,-0.023,-30.76,-119.57,0
598250.0,0.012,-0.021,-0.021,-40.78,-149.62,0
598255.0,0.005,0.017,0.006,66.9,-42.4,0
598260.0,-0.019,-0.009,-0.004,-24.6,102.14,0
598265.0,-0.026,0.006,-0.011,10.97,113.33,0
598270.0,0.019,0.034,0.029,44.16,-33.37,0
598275.0,-0.007,0.006,-0.023,12.8,163.36,0
598280.0,-0.028,0.02,-0.014,32.17,115.59,0
598285.0,0.005,0.001,0.006,5.5,-42.4,0
598290.0,-0.009,-0.006,0.003,-33.3,71.57,0
598295.0,-0.026,0.022,0.003,40.27,83.2,0
598300.0,-0.017,0.032,0.022,48.95,36.57,0
598305.0,-0.026,-0.033,-0.002,-51.44,93.68,0
598310.0,-0.028,0.01,-0.004,19.68,98.13,0
598315.0,-0.012,-0.023,0.027,-38.22,23.44,0
598320.0,0.0,0.006,-0.011,26.07,-178.78,0
598325.0,-0.012,-0.016,0.003,-52.89,75.14,0
598330.0,-0.014,0.034,-0.009,64.03,122.09,0
598335.0,-0.002,0.027,-0.026,46.46,175.19,0
598340.0,-0.028,0.001,0.015,1.28,62.1,0
598345.0,0.029,-0.002,0.025,-2.52,-49.59,0
598350.0,-0.009,-0.009,0.015,-26.54,31.76,0
598355.0,-0.005,-0.009,0.015,-29.35,16.78,0
598360.0,-0.021,-0.009,-0.014,-19.29,122.64,0
598365.0,0.043,-0.011,0.039,-10.92,-48.0,0
598370.0,0.01,-0.011,-0.03,-19.4,-162.11,0
598375.0,-0.007,0.006,-0.006,30.13,132.96,0
598380.0,0.01,-0.038,0.025,-54.77,-21.71,0
598385.0,0.01,0.017,0.015,44.16,-33.06,0
598390.0,0.034,0.001,0.027,0.95,-51.29,0
598395.0,-0.017,-0.028,0.068,-21.88,13.7,0
598400.0,-0.005,0.001,0.01,3.65,23.84,0
598405.0,0.017,-0.006,0.01,-18.02,-58.8,0
598410.0,-0.021,0.008,0.039,10.08,28.64,0
598415.0,0.015,0.017,0.013,42.09,-49.02,0
598420.0,-0.007,-0.011,0.017,-30.89,21.67,0
598425.0,0.003,-0.04,0.006,-81.32,-25.56,0
598430.0,-0.017,-0.004,0.001,-13.83,87.51,0
598435.0,0.007,-0.006,0.003,-38.77,-67.25,0
598440.0,-0.017,0.029,0.022,46.73,36.57,0
598445.0,0.01,-0.004,0.003,-21.57,-72.41,0
598450.0,-0.014,-0.021,0.027,-34.31,27.57,0
598455.0,-0.017,-0.004,0.015,-10.31,47.6,0
598460.0,0.024,-0.023,-0.004,-43.44,-99.55,0
598465.0,-0.007,0.003,-0.016,10.1,156.6,0
598470.0,0.012,-0.018,0.008,-51.73,-57.1,0
598475.0,-0.009,-0.006,0.015,-20.02,31.76,0
598480.0,0.017,0.008,0.008,22.86,-65.07,0
598485.0,0.012,0.015,-0.004,49.53,-108.44,0
598490.0,0.036,0.027,0.039,26.96,-42.81,0
598495.0,0.031,-0.014,0.044,-14.21,-35.6,0
598500.0,0.048,0.02,0.015,21.51,-72.6,0
598505.0,-0.019,-0.002,-0.009,-4.59,115.1,0
598510.0,0.027,-0.023,-0.018,-35.68,-124.75,0
598515.0,0.017,-0.002,0.025,-3.2,-34.58,0
598520.0,-0.014,0.013,0.075,9.45,10.68,0
598525.0,0.039,0.008,0.001,11.58,-88.93,0
598530.0,-0.033,0.025,-0.009,35.61,104.91,0
598535.0,-0.005,-0.006,-0.009,-32.99,152.82,0
598540.0,-0.009,-0.004,0.032,-6.99,16.34,0
598545.0,-0.017,0.013,0.02,26.15,39.74,0
598550.0,0.0,0.001,0.034,1.2,-0.4,0
598555.0,-0.017,-0.026,-0.011,-52.04,124.26,0
598560.0,-0.04,0.01,-0.014,13.56,108.64,0
598565.0,0.015,-0.021,-0.035,-28.66,-157.46,0
598570.0,0.003,-0.014,0.02,-34.25,-7.55,0
598575.0,-0.024,-0.011,0.02,-19.99,50.02,0
598580.0,-0.009,-0.023,-0.016,-51.37,149.8,0
598585.0,-0.021,0.01,0.017,20.48,50.64,0
598590.0,-0.024,-0.021,-0.014,-37.29,119.93,0
598595.0,0.029,-0.014,0.037,-16.29,-38.34,0
598600.0,0.01,0.015,0.041,19.51,-13.33,0
598605.0,-0.014,0.006,0.01,17.49,53.92,0
598610.0,-0.002,-0.021,0.017,-49.79,7.03,0
598615.0,0.024,-0.002,-0.045,-1.89,-151.63,0
598620.0,0.005,-0.023,-0.002,-77.14,-108.44,0
598625.0,0.031,0.017,0.006,28.76,-80.04,0
598630.0,0.003,-0.006,0.041,-8.85,-3.64,0
598635.0,0.003,0.037,0.01,73.82,-14.35,0
598640.0,-0.012,-0.009,0.034,-13.75,18.91,0
598645.0,-0.002,-0.009,-0.033,-15.08,176.24,0
598650.0,-0.024,-0.023,0.037,-28.03,32.91,0
598655.0,0.034,0.006,0.017,8.24,-62.63,0
598660.0,-0.026,0.022,0.037,26.34,35.47,0
598665.0,0.029,-0.009,0.006,-16.72,-79.24,0
598670.0,-0.005,0.003,-0.016,10.57,164.17,0
598675.0,0.005,0.008,-0.026,16.84,-168.9,0
598680.0,0.005,-0.045,0.01,-75.65,-26.03,0
598685.0,-0.036,0.027,0.025,31.96,55.35,0
598690.0,-0.005,-0.047,0.022,-64.27,11.55,0
598695.0,0.007,-0.009,-0.004,-46.3,-118.74,0
598700.0,-0.007,0.003,-0.006,18.16,132.96,0
598705.0,-0.021,-0.002,0.003,-4.45,81.69,0
598710.0,-0.007,0.001,0.022,1.76,17.32,0
598715.0,-0.007,-0.028,0.008,-69.42,41.31,0
598720.0,-0.009,-0.018,0.025,-34.96,20.74,0
598725.0,-0.005,0.01,0.006,55.25,39.56,0
598730.0,0.0,0.015,0.02,37.2,-0.69,0
598735.0,0.036,0.006,-0.026,7.08,-125.32,0
598740.0,0.0,0.006,0.013,23.46,-1.08,0
598745.0,0.024,-0.016,0.046,-17.1,-27.62,0
598750.0,0.031,0.017,0.029,22.11,-46.8,0
598755.0,-0.002,0.02,-0.033,31.15,176.24,0
598760.0,0.005,0.001,-0.033,1.24,-171.29,0
598765.0,0.012,-0.035,-0.002,-70.7,-97.82,0
598770.0,0.0,0.003,0.008,21.49,-1.74,0
598775.0,0.007,0.001,0.001,5.5,-84.47,0
598780.0,0.012,-0.016,0.025,-30.24,-26.34,0
598785.0,0.005,-0.016,-0.026,-31.57,-168.9,0
598790.0,-0.014,0.015,0.008,42.98,60.78,0
598795.0,-0.031,-0.014,-0.006,-23.39,101.82,0
598800.0,0.005,-0.018,0.051,-19.79,-5.63,0
598805.0,-0.019,0.027,0.022,42.8,40.35,0
598810.0,0.005,-0.026,0.07,-20.01,-4.1,0
598815.0,0.015,-0.004,0.001,-15.55,-87.18,0
598820.0,-0.04,0.015,0.013,19.58,72.59,0
598825.0,-0.009,-0.052,-0.028,-60.39,161.57,0
598830.0,0.017,-0.014,0.034,-19.65,-26.4,0
598835.0,-0.031,0.027,0.056,22.99,28.97,0
598840.0,0.01,-0.014,0.022,-29.29,-23.79,0
598845.0,-0.012,-0.009,-0.016,-24.02,143.82,0
598850.0,-0.017,-0.009,0.013,-23.04,52.47,0
598855.0,-0.007,-0.042,0.006,-78.19,51.58,0
598860.0,-0.007,-0.016,0.001,-66.48,84.1,0
598865.0,0.007,0.017,0.022,36.67,-18.44,0
598870.0,0.0,0.013,0.006,66.52,-2.49,0
598875.0,-0.028,0.022,0.022,31.62,51.99,0
598880.0,0.007,-0.011,0.015,-33.8,-26.2,0
598885.0,-0.033,-0.002,-0.023,-2.36,124.91,0
598890.0,0.019,0.003,0.006,8.78,-74.15,0
598895.0,0.029,0.013,0.017,20.56,-58.9,0
598900.0,-0.033,-0.006,-0.016,-9.92,115.74,0
598905.0,0.019,0.027,0.003,54.02,-80.88,0
598910.0,0.005,0.02,0.013,55.52,-21.62,0
598915.0,-0.007,-0.002,0.049,-1.96,8.13,0
598920.0,-0.017,0.01,0.017,23.18,43.39,0
598925.0,-0.009,-0.021,0.037,-28.86,14.3,0
598930.0,-0.002,0.013,0.001,79.85,71.57,0
598935.0,-0.007,-0.009,0.001,-51.76,84.1,0
598940.0,-0.024,0.003,0.02,5.75,50.02,0
598945.0,-0.017,0.017,0.013,40.0,52.47,0
598950.0,0.012,-0.002,-0.006,-6.92,-117.9,0
598955.0,0.003,-0.018,-0.011,-57.92,-166.83,0
598960.0,-0.014,-0.016,-0.004,-47.5,106.07,0
598965.0,-0.007,-0.009,0.003,-49.34,65.86,0
598970.0,0.027,-0.016,-0.026,-23.49,-133.95,0
598975.0,0.017,0.037,0.013,59.93,-53.26,0
598980.0,0.0,0.013,0.008,58.08,-1.74,0
598985.0,0.022,-0.011,-0.002,-27.25,-94.4,0
598990.0,-0.021,-0.016,-0.011,-33.65,117.84,0
598995.0,-0.031,0.022,0.015,32.94,63.97,0
599000.0,0.039,-0.009,0.034,-9.75,-48.39,0
599005.0,-0.043,-0.018,0.02,-21.32,65.12,0
599010.0,0.058,-0.009,-0.016,-8.41,-105.54,0
599015.0,-0.017,-0.011,-0.038,-15.33,156.28,0
599020.0,0.01,-0.002,-0.023,-3.8,-157.09,0
599025.0,0.029,0.015,-0.011,25.89,-111.23,0
599030.0,-0.012,0.013,0.01,39.11,48.73,0
599035.0,0.015,-0.038,0.001,-68.74,-87.18,0
599040.0,0.0,-0.023,-0.026,-42.19,-179.46,0
599045.0,0.0,0.029,-0.002,86.71,-171.87,0
599050.0,-0.021,0.015,-0.016,29.49,126.97,0
599055.0,0.019,0.056,-0.016,65.72,-129.6,0
599060.0,-0.055,0.029,-0.002,28.23,91.75,0
599065.0,-0.002,0.027,-0.016,59.11,172.35,0
599070.0,-0.019,-0.021,-0.002,-47.65,95.07,0
599075.0,-0.012,-0.002,0.013,-5.54,42.76,0
599080.0,0.019,0.013,0.015,27.32,-52.13,0
599085.0,-0.009,-0.021,0.013,-52.9,36.35,0
599090.0,0.007,0.013,-0.042,16.43,-170.07,0
599095.0,-0.007,-0.054,0.01,-77.13,34.0,0
599100.0,-0.019,-0.002,0.061,-1.51,17.34,0
599105.0,0.094,0.053,0.053,26.35,-60.3,0
599110.0,-0.086,0.013,0.075,6.35,48.92,0
599115.0,0.065,-0.004,0.01,-3.55,-80.98,0
599120.0,-0.017,-0.014,0.013,-33.23,52.47,0
599125.0,-0.093,0.013,0.006,7.75,86.62,0
599130.0,0.192,0.022,-0.028,6.55,-98.31,0
599135.0,-0.225,-0.023,-0.014,-5.89,93.47,0
599140.0,0.122,0.027,0.003,12.47,-88.54,0
599145.0,-0.028,-0.014,-0.002,-25.56,93.37,0
599150.0,-0.057,0.001,0.061,0.49,43.37,0
599155.0,0.098,0.02,0.02,11.2,-78.58,0
599160.0,-0.026,-0.014,0.034,-17.59,37.32,0
599165.0,0.015,0.006,0.051,5.93,-15.98,0
599170.0,0.024,-0.018,-0.026,-27.62,-136.65,0
599175.0,-0.028,0.02,0.027,26.83,46.48,0
599180.0,-0.005,-0.011,0.037,-16.95,7.08,0
599185.0,0.027,0.027,0.006,44.91,-78.29,0
599190.0,-0.033,0.017,0.006,27.39,80.6,0
599195.0,0.027,-0.035,-0.011,-50.65,-112.95,0
599200.0,-0.028,-0.03,-0.04,-31.77,144.53,0
599205.0,-0.009,-0.023,-0.04,-29.49,166.86,0
599210.0,-0.012,0.017,0.044,21.07,14.99,0
599215.0,0.012,-0.006,0.029,-11.46,-22.52,0
599220.0,-0.04,-0.011,0.01,-15.08,75.72,0
599225.0,0.01,-0.016,0.006,-54.94,-60.71,0
599230.0,0.0,0.013,-0.006,62.99,-177.88,0
599235.0,-0.005,-0.004,0.02,-11.29,12.89,0
599240.0,0.048,-0.002,0.006,-1.98,-83.47,0
599245.0,-0.012,-0.014,0.029,-23.29,21.72,0
599250.0,-0.005,-0.002,0.025,-3.82,10.45,0
599255.0,0.01,-0.009,0.01,-31.91,-43.64,0
599260.0,-0.005,0.025,-0.016,55.94,164.17,0
599265.0,0.007,0.001,-0.03,1.31,-166.28,0
599270.0,0.0,0.017,-0.009,63.11,-178.45,0
599275.0,-0.019,-0.002,0.037,-2.33,27.31,0
599280.0,0.012,-0.009,0.01,-29.02,-49.86,0
599285.0,0.015,0.025,0.003,58.8,-77.97,0
599290.0,-0.014,-0.035,0.006,-66.69,68.7,0
599295.0,-0.007,-0.009,0.025,-19.07,15.72,0
599300.0,-0.014,0.032,-0.028,45.43,153.24,0
599305.0,-0.021,0.022,0.029,31.49,35.89,0
599310.0,0.005,0.015,0.02,36.35,-14.2,0
599315.0,0.0,-0.014,0.017,-37.98,-0.78,0
599320.0,0.01,-0.023,-0.018,-48.03,-151.97,0
599325.0,-0.019,-0.006,-0.026,-11.47,143.56,0
599330.0,0.01,0.003,-0.018,8.48,-151.97,0
599335.0,-0.019,-0.009,-0.006,-23.9,108.87,0
599340.0,-0.007,0.003,0.015,10.62,24.72,0
599345.0,-0.014,-0.035,-0.038,-41.23,159.4,0
599350.0,-0.019,-0.033,0.003,-59.7,80.66,0
599355.0,-0.017,-0.002,-0.006,-5.4,111.37,0
599360.0,-0.019,0.02,0.039,24.62,25.86,0
599365.0,-0.002,-0.023,0.029,-38.19,4.19,0
599370.0,0.034,-0.006,0.013,-10.16,-69.4,0
599375.0,-0.019,0.027,-0.014,49.24,125.81,0
599380.0,0.003,-0.002,0.015,-6.25,-9.9,0
599385.0,-0.002,-0.016,0.037,-23.61,3.37,0
599390.0,0.0,0.013,0.008,58.08,-1.74,0
599395.0,-0.005,0.015,0.029,26.85,8.78,0
599400.0,0.019,0.044,-0.011,62.9,-120.13,0
599405.0,-0.017,0.001,0.029,1.22,29.29,0
599410.0,-0.021,0.003,0.008,7.8,69.66,0
599415.0,0.01,-0.016,-0.033,-25.1,-163.34,0
599420.0,-0.009,0.022,0.015,51.46,31.76,0
599425.0,-0.028,0.008,0.029,10.91,44.05,0
599430.0,0.012,0.017,0.01,47.58,-49.86,0
599435.0,0.005,-0.028,-0.042,-33.28,-173.23,0
599440.0,-0.026,0.017,-0.002,33.76,93.68,0
599445.0,0.019,0.015,0.034,20.97,-29.53,0
599450.0,0.005,-0.009,-0.014,-31.35,-159.78,0
599455.0,-0.007,-0.006,-0.004,-38.77,120.38,0
599460.0,-0.017,-0.028,0.022,-45.3,36.57,0
599465.0,-0.019,0.013,-0.045,14.63,157.1,0
599470.0,0.024,-0.004,0.02,-7.41,-50.59,0
599475.0,0.01,-0.009,0.029,-15.93,-18.43,0
599480.0,0.003,0.001,-0.018,2.21,-171.87,0
599485.0,0.017,-0.006,-0.006,-19.57,-110.82,0
599490.0,-0.019,0.02,-0.023,33.56,140.84,0
599495.0,-0.017,-0.002,-0.045,-2.01,159.75,0
599500.0,-0.009,-0.028,-0.006,-67.93,124.7,0
599505.0,0.003,-0.018,0.027,-34.15,-5.56,0
599510.0,-0.024,0.008,0.044,9.01,28.41,0
599515.0,-0.007,0.017,-0.006,61.51,132.96,0
599520.0,0.027,0.017,-0.014,30.33,-117.18,0
599525.0,0.003,-0.023,0.022,-46.01,-6.75,0
599530.0,0.015,-0.004,0.051,-4.39,-15.98,0
599535.0,0.005,0.037,-0.009,74.46,-150.42,0
599540.0,0.019,-0.002,0.003,-4.88,-80.88,0
599545.0,-0.005,0.013,0.01,48.43,23.84,0
599550.0,-0.005,-0.011,0.013,-39.86,19.72,0
599555.0,-0.009,0.015,0.006,54.3,59.47,0
599560.0,0.015,0.017,0.037,23.9,-21.74,0
599565.0,0.005,0.008,0.008,40.16,-32.47,0
599570.0,0.003,-0.002,0.032,-3.0,-4.73,0
599575.0,0.003,-0.009,0.006,-55.43,-25.56,0
599580.0,-0.009,0.006,0.006,26.93,59.47,0
599585.0,0.01,-0.009,0.044,-11.16,-12.63,0
599590.0,-0.009,0.032,0.006,71.2,59.47,0
599595.0,-0.021,0.006,-0.047,6.07,155.69,0
599600.0,-0.009,0.001,0.008,3.36,49.77,0
599605.0,-0.026,-0.006,-0.006,-13.52,103.91,0
599610.0,-0.002,-0.023,0.022,-46.07,5.53,0
599615.0,-0.017,0.02,-0.011,44.83,124.26,0
599620.0,0.022,0.015,-0.04,18.33,-151.41,0
599625.0,0.017,0.032,0.017,52.56,-44.21,0
599630.0,-0.012,-0.026,-0.04,-31.58,163.65,0
599635.0,-0.009,-0.042,-0.028,-55.13,161.57,0
599640.0,-0.002,-0.038,-0.028,-53.22,175.6,0
599645.0,0.003,0.006,-0.069,4.58,-177.81,0
599650.0,0.01,0.008,-0.011,27.88,-138.9,0
599655.0,0.01,-0.002,0.032,-2.88,-17.13,0
599660.0,-0.007,0.003,0.008,16.49,41.31,0
599665.0,-0.045,0.003,-0.004,3.92,95.14,0
599670.0,0.012,-0.014,-0.006,-44.65,-117.9,0
599675.0,-0.028,0.001,0.013,1.32,65.99,0
599680.0,0.003,0.027,0.013,64.41,-11.73,0
599685.0,0.017,0.015,-0.004,40.79,-103.47,0
599690.0,0.0,-0.014,-0.045,-16.95,-179.69,0
599695.0,0.007,-0.018,-0.009,-57.92,-140.04,0
599700.0,-0.005,0.013,-0.009,51.88,152.82,0
599705.0,0.003,-0.006,0.006,-46.64,-25.56,0
599710.0,0.007,0.006,-0.004,33.05,-118.74,0
599715.0,0.007,-0.004,0.006,-23.77,-53.43,0
599720.0,-0.043,0.001,-0.004,0.96,95.43,0
599725.0,-0.036,-0.006,0.037,-7.21,44.24,0
599730.0,-0.019,0.006,-0.045,6.46,157.1,0
599735.0,-0.005,-0.018,0.034,-28.09,7.57,0
599740.0,0.007,-0.004,-0.011,-16.8,-146.59,0
599745.0,-0.005,0.001,0.001,8.86,81.03,0
599750.0,-0.017,0.013,-0.03,20.14,151.48,0
599755.0,0.029,0.01,0.015,17.5,-62.5,0
599760.0,0.01,-0.014,-0.009,-45.9,-132.06,0
599765.0,-0.007,0.02,-0.011,56.36,148.33,0
599770.0,-0.019,-0.014,-0.011,-31.8,120.75,0
599775.0,0.0,-0.006,-0.021,-17.24,-179.34,0
599780.0,0.01,0.01,0.013,32.69,-37.73,0
599785.0,-0.009,0.006,0.013,19.27,36.35,0
599790.0,0.012,-0.009,-0.026,-17.34,-154.52,0
599795.0,0.0,-0.016,0.041,-21.17,-0.33,0
599800.0,0.007,0.001,0.041,0.98,-10.16,0
599805.0,-0.007,-0.016,0.051,-17.31,7.75,0
599810.0,0.015,0.015,-0.002,45.74,-96.55,0
599815.0,-0.005,-0.018,0.001,-75.97,81.03,0
599820.0,0.005,0.032,-0.014,65.45,-159.78,0
599825.0,-0.024,-0.009,0.006,-20.0,76.92,0
599830.0,-0.012,0.027,-0.023,46.12,153.2,0
599835.0,-0.017,0.001,0.02,1.59,39.74,0
599840.0,0.01,-0.014,0.003,-52.96,-72.41,0
599845.0,-0.017,-0.006,0.008,-19.44,64.44,0
599850.0,0.012,0.01,-0.009,34.31,-125.96,0
599855.0,0.012,0.008,-0.042,10.16,-163.93,0
599860.0,0.012,0.008,0.008,28.51,-57.1,0
599865.0,-0.009,0.02,0.008,58.39,49.77,0
599870.0,0.0,0.039,-0.009,77.21,-178.45,0
599875.0,-0.017,0.01,-0.006,30.13,111.37,0
599880.0,-0.014,0.032,-0.018,53.89,142.54,0
599885.0,0.0,0.029,0.015,62.88,-0.91,0
599890.0,0.015,0.003,-0.016,8.16,-137.68,0
599895.0,-0.021,0.008,0.008,19.17,69.66,0
599900.0,-0.031,-0.014,0.027,-18.39,48.78,0
599905.0,0.012,-0.021,-0.004,-58.29,-108.44,0
599910.0,0.007,0.015,0.027,28.27,-15.34,0
599915.0,-0.017,-0.009,0.025,-16.62,33.82,0
599920.0,0.005,0.034,0.017,62.02,-16.05,0
599925.0,-0.014,0.015,-0.011,39.87,128.54,0
599930.0,0.01,-0.016,-0.004,-56.48,-112.52,0
599935.0,0.029,0.008,0.01,14.41,-70.44,0
599940.0,0.015,0.008,0.017,19.13,-39.88,0
599945.0,0.01,-0.009,0.02,-21.79,-26.29,0
599950.0,0.029,0.01,0.032,13.45,-42.3,0
599955.0,-0.009,0.008,0.039,11.14,13.46,0
599960.0,0.003,0.01,0.015,33.92,-9.9,0
599965.0,0.007,0.013,0.029,22.68,-14.15,0
599970.0,0.007,0.003,-0.004,20.19,-118.74,0
599975.0,-0.005,0.015,-0.011,51.18,157.99,0
599980.0,0.0,-0.009,0.006,-58.11,-2.49,0
599985.0,-0.005,-0.002,-0.014,-6.65,161.56,0
599990.0,-0.009,0.008,-0.018,20.92,153.14,0
599995.0,0.015,0.013,0.077,9.16,-10.69,0
600000.0,0.005,-0.004,0.037,-6.28,-7.82,0
600005.0,0.003,0.017,-0.009,62.13,-163.44,0
600010.0,-0.005,0.006,0.025,12.39,10.45,0
600015.0,0.015,0.017,0.015,39.78,-44.08,0
600020.0,-0.002,0.017,0.013,53.63,9.64,0
600025.0,0.01,-0.004,-0.05,-4.61,-168.8,0
600030.0,-0.019,0.008,0.044,9.4,23.35,0
600035.0,0.003,-0.026,0.015,-59.13,-9.9,0
600040.0,-0.019,-0.014,-0.006,-34.32,108.87,0
600045.0,0.005,0.006,0.029,10.44,-9.69,0
600050.0,-0.007,0.027,0.025,46.56,15.72,0
600055.0,0.039,-0.014,-0.002,-19.48,-92.49,0
600060.0,0.01,0.001,-0.021,1.79,-154.77,0
600065.0,0.012,0.025,0.029,37.72,-22.52,0
600070.0,-0.009,-0.021,-0.054,-20.69,170.25,0
600075.0,0.0,0.001,0.013,3.24,-1.08,0
600080.0,-0.031,0.017,-0.016,26.67,117.45,0
600085.0,-0.014,0.02,-0.002,54.4,96.77,0
600090.0,-0.009,-0.016,0.041,-20.7,12.7,0
600095.0,-0.017,-0.011,0.022,-22.09,36.57,0
600100.0,0.005,-0.002,0.006,-12.67,-42.4,0
600105.0,-0.031,-0.026,-0.03,-30.59,134.55,0
600110.0,0.017,0.025,-0.011,50.42,-123.5,0
600115.0,-0.005,-0.004,0.046,-5.01,5.62,0
600120.0,0.01,-0.006,-0.006,-28.81,-123.37,0
600125.0,0.017,0.01,0.032,15.92,-28.1,0
600130.0,-0.005,0.02,0.022,41.17,11.55,0
600135.0,0.005,0.003,-0.03,5.77,-170.61,0
600140.0,0.003,-0.018,0.001,-81.58,-74.75,0
600145.0,0.024,0.013,0.051,12.67,-25.37,0
600150.0,0.005,-0.033,0.006,-77.19,-42.4,0
600155.0,-0.026,0.001,0.003,1.57,83.2,0
600160.0,-0.005,-0.004,0.029,-7.78,8.78,0
600165.0,-0.017,0.008,0.017,18.19,43.39,0
600170.0,0.017,0.003,-0.009,9.22,-117.53,0
600175.0,-0.019,-0.004,0.015,-9.55,51.43,0
600180.0,0.024,0.032,0.01,50.47,-66.94,0
600185.0,0.005,0.01,-0.05,11.68,-174.21,0
600190.0,0.019,0.003,-0.04,4.01,-154.13,0
600195.0,-0.007,0.017,-0.014,48.78,153.03,0
600200.0,-0.009,-0.033,-0.009,-68.57,133.49,0
600205.0,-0.005,0.015,0.003,69.93,55.63,0
600210.0,-0.026,0.02,0.025,28.96,46.62,0
600215.0,0.005,-0.021,0.022,-42.38,-12.72,0
600220.0,-0.021,0.003,0.006,8.05,75.51,0
600225.0,-0.002,0.001,0.017,2.34,7.03,0
600230.0,-0.007,-0.035,-0.016,-63.59,156.6,0
600235.0,-0.012,0.006,0.006,23.02,64.86,0
600240.0,-0.017,-0.006,0.02,-14.04,39.74,0
600245.0,-0.014,-0.006,0.037,-9.35,21.09,0
600250.0,0.003,0.015,0.034,23.71,-4.4,0
600255.0,-0.002,0.003,0.025,7.17,4.99,0
600260.0,0.007,0.008,0.001,46.66,-84.47,0
600265.0,-0.009,-0.002,0.049,-1.94,10.88,0
600270.0,-0.021,0.017,0.037,22.41,30.19,0
600275.0,0.012,0.029,-0.023,48.3,-152.27,0
600280.0,-0.014,-0.023,-0.002,-58.51,96.77,0
600285.0,0.015,0.001,-0.014,2.06,-133.06,0
600290.0,0.01,0.037,-0.054,33.56,-169.76,0
600295.0,-0.014,-0.018,0.013,-44.15,48.07,0
600300.0,-0.017,-0.014,0.01,-35.03,58.07,0
600305.0,0.039,0.001,0.013,1.01,-71.78,0
600310.0,-0.014,-0.002,0.015,-4.64,43.12,0
600315.0,0.01,0.01,-0.009,37.9,-132.06,0
600320.0,0.007,-0.002,-0.006,-9.66,-131.06,0
600325.0,-0.028,0.006,-0.009,10.46,107.27,0
600330.0,0.022,-0.014,0.003,-31.8,-81.87,0
600335.0,-0.026,0.003,0.001,6.8,88.42,0
600340.0,-0.007,0.032,0.013,65.57,28.69,0
600345.0,-0.005,0.017,0.056,17.34,4.66,0
600350.0,0.003,0.003,0.008,20.49,-18.44,0
600355.0,-0.007,0.032,0.01,68.7,34.0,0
600360.0,-0.017,-0.026,0.013,-50.88,52.47,0
600365.0,0.019,0.01,0.022,19.22,-41.06,0
600370.0,0.022,-0.009,0.008,-20.92,-70.07,0
600375.0,0.027,-0.018,0.006,-34.19,-78.29,0
600380.0,-0.017,-0.018,0.025,-31.84,33.82,0
600385.0,0.022,0.006,0.013,12.32,-59.78,0
600390.0,-0.045,-0.002,0.003,-2.12,86.07,0
600395.0,0.005,0.001,0.001,8.05,-81.87,0
600400.0,0.005,0.02,-0.009,62.86,-150.42,0
600405.0,0.017,0.01,0.001,31.18,-87.58,0
600410.0,-0.009,-0.028,0.01,-63.61,42.21,0
600415.0,0.01,0.015,-0.016,38.73,-148.54,0
600420.0,-0.002,0.032,-0.021,56.67,174.09,0
600425.0,-0.024,0.02,-0.006,38.97,105.26,0
600430.0,-0.009,-0.002,-0.014,-5.79,145.62,0
600435.0,-0.007,0.008,0.032,13.63,12.3,0
600440.0,0.017,-0.002,0.034,-2.51,-26.4,0
600445.0,-0.005,-0.006,0.015,-22.31,16.78,0
600450.0,-0.007,0.025,0.039,31.89,10.09,0
600455.0,-0.002,0.01,0.013,38.66,9.64,0
600460.0,-0.014,0.006,-0.006,19.52,114.59,0
600465.0,-0.017,-0.018,-0.002,-47.99,95.79,0
600470.0,0.017,0.022,0.01,48.25,-58.8,0
600475.0,0.007,0.022,0.022,43.49,-18.44,0
600480.0,0.003,-0.018,-0.002,-80.39,-122.48,0
600485.0,-0.012,0.013,0.022,26.76,27.78,0
600490.0,0.007,0.003,0.044,4.01,-9.61,0
600495.0,0.01,0.015,0.029,25.92,-18.43,0
600500.0,-0.007,-0.018,0.02,-41.21,19.26,0
600505.0,0.022,-0.002,-0.011,-3.91,-117.32,0
600510.0,0.007,0.001,-0.014,2.65,-151.46,0
600515.0,-0.014,-0.009,0.008,-28.69,60.78,0
600520.0,-0.007,-0.006,0.001,-42.8,84.1,0
600525.0,0.003,0.027,0.017,56.84,-8.57,0
600530.0,-0.002,0.003,0.025,7.17,4.99,0
600535.0,-0.019,0.039,0.013,59.73,56.14,0
600540.0,0.015,0.003,-0.011,9.58,-127.62,0
600545.0,-0.012,-0.014,0.003,-48.35,75.14,0
600550.0,0.012,0.001,0.013,2.34,-43.9,0
600555.0,0.01,-0.028,-0.002,-70.43,-99.69,0
600560.0,-0.007,0.02,-0.021,42.15,161.57,0
600565.0,-0.014,0.022,-0.028,35.36,153.24,0
600570.0,0.0,-0.021,-0.006,-72.75,-177.88,0
600575.0,0.019,0.006,0.017,11.91,-47.97,0
600580.0,-0.014,0.027,-0.028,40.77,153.24,0
600585.0,-0.009,0.022,0.001,67.19,85.6,0
600590.0,-0.002,0.013,-0.035,19.79,176.5,0
600595.0,-0.002,-0.002,0.013,-7.42,9.64,0
600600.0,-0.014,0.003,0.039,4.29,19.9,0
600605.0,-0.017,-0.002,0.02,-3.71,39.74,0
600610.0,-0.021,0.013,-0.009,28.81,112.57,0
600615.0,-0.002,-0.002,0.015,-6.28,8.13,0
600620.0,0.012,0.015,-0.042,18.88,-163.93,0
600625.0,0.022,0.003,0.001,8.13,-88.11,0
600630.0,-0.024,-0.006,-0.011,-13.84,115.4,0
600635.0,-0.012,0.001,-0.026,1.46,155.4,0
600640.0,-0.017,-0.028,0.044,-30.89,20.66,0
600645.0,0.015,0.015,0.013,37.94,-49.02,0
600650.0,0.007,0.017,0.025,34.16,-16.75,0
600655.0,-0.012,0.034,0.032,45.25,20.23,0
600660.0,0.0,0.025,-0.016,56.95,-179.15,0
600665.0,0.036,0.006,-0.018,7.73,-117.02,0
600670.0,-0.002,-0.006,-0.002,-67.1,127.88,0
600675.0,0.01,0.01,0.017,27.19,-29.32,0
600680.0,0.005,-0.021,-0.026,-38.58,-168.9,0
600685.0,0.017,0.008,0.003,24.57,-79.63,0
600690.0,0.012,0.006,-0.002,24.07,-97.82,0
600695.0,0.005,-0.023,-0.002,-77.14,-108.44,0
600700.0,0.012,0.008,-0.006,29.76,-117.9,0
600705.0,-0.012,0.017,0.015,42.45,37.88,0
600710.0,0.019,-0.006,0.037,-8.86,-27.9,0
600715.0,-0.024,0.027,0.015,43.92,57.53,0
600720.0,0.007,0.003,0.044,4.01,-9.61,0
600725.0,-0.012,-0.011,0.032,-18.35,20.23,0
600730.0,0.007,-0.002,-0.014,-6.16,-151.46,0
600735.0,0.0,-0.002,0.032,-3.01,-0.43,0
600740.0,-0.026,-0.009,0.001,-18.74,88.42,0
600745.0,0.007,-0.011,0.017,-30.65,-23.01,0
600750.0,0.005,0.032,0.034,42.62,-8.35,0
600755.0,0.003,0.008,-0.03,14.51,-175.05,0
600760.0,-0.012,0.022,-0.014,51.05,139.32,0
600765.0,-0.012,0.01,0.02,24.04,30.56,0
600770.0,-0.012,0.027,0.013,57.43,42.76,0
600775.0,-0.012,-0.033,0.017,-57.31,33.87,0
600780.0,0.0,-0.006,-0.014,-25.34,-179.0,0
600785.0,-0.026,0.025,0.01,41.32,68.47,0
600790.0,-0.002,0.02,-0.026,37.7,175.19,0
600795.0,0.022,0.006,-0.042,6.59,-152.79,0
600800.0,0.0,0.008,0.001,84.53,-18.43,0
600805.0,0.027,0.006,-0.009,11.12,-108.44,0
600810.0,-0.028,-0.002,0.034,-2.15,39.77,0
600815.0,0.017,0.02,-0.009,46.03,-117.53,0
600820.0,-0.002,0.006,-0.011,25.67,169.16,0
600825.0,0.012,0.003,0.001,14.28,-86.63,0
600830.0,-0.033,-0.002,0.037,-1.94,42.26,0
600835.0,0.029,-0.026,0.003,-41.32,-83.87,0
600840.0,-0.012,0.001,0.013,2.38,42.76,0
600845.0,0.012,0.027,-0.006,62.95,-117.9,0
600850.0,-0.007,-0.009,-0.002,-51.12,103.58,0
600855.0,-0.062,0.01,-0.006,9.38,95.95,0
600860.0,0.022,-0.018,-0.023,-30.07,-136.83,0
600865.0,-0.038,-0.002,0.02,-2.23,62.44,0
600870.0,-0.007,0.017,0.006,63.11,51.58,0
600875.0,0.007,0.037,0.02,59.93,-20.48,0
600880.0,-0.014,0.037,0.027,50.2,27.57,0
600885.0,0.012,0.013,0.032,20.41,-20.98,0
600890.0,-0.024,0.025,-0.011,43.22,115.4,0
600895.0,-0.017,0.01,-0.018,22.58,138.14,0
600900.0,0.005,-0.006,-0.052,-7.06,-174.47,0
600905.0,0.0,-0.026,-0.006,-75.83,-177.88,0
600910.0,-0.007,-0.006,0.027,-13.03,14.39,0
600915.0,-0.007,0.017,-0.011,52.89,148.33,0
600920.0,-0.005,0.017,0.015,47.97,16.78,0
600925.0,-0.021,-0.03,0.001,-54.96,88.07,0
600930.0,0.024,0.025,0.039,28.24,-31.78,0
600935.0,0.015,0.022,0.049,23.69,-16.73,0
600940.0,0.0,-0.009,0.02,-24.03,-0.69,0
600945.0,0.005,-0.016,0.01,-54.46,-26.03,0
600950.0,-0.017,-0.011,-0.038,-15.33,156.28,0
600955.0,0.017,-0.014,0.029,-21.87,-30.0,0
600960.0,0.012,-0.021,-0.03,-32.44,-158.12,0
600965.0,-0.012,-0.006,0.034,-10.13,18.91,0
600970.0,0.005,-0.014,0.027,-26.38,-10.53,0
600975.0,0.0,0.013,-0.002,82.4,-171.87,0
600980.0,0.0,0.008,-0.009,41.72,-178.45,0
600985.0,-0.014,0.003,0.02,7.28,35.41,0
600990.0,0.031,-0.03,0.056,-25.41,-29.35,0
600995.0,-0.036,0.006,0.063,4.35,29.53,0
601000.0,0.015,-0.004,0.001,-15.55,-87.18,0
601005.0,-0.026,0.015,-0.033,19.79,141.49,0
601010.0,0.012,-0.016,-0.009,-46.76,-125.96,0
601015.0,-0.024,0.01,-0.009,22.14,110.49,0
601020.0,0.003,-0.023,0.022,-46.01,-6.75,0
601025.0,0.0,-0.026,0.001,-88.31,-18.43,0
601030.0,-0.007,0.02,-0.026,36.82,164.84,0
601035.0,-0.002,0.022,0.008,69.81,15.26,0
601040.0,-0.019,-0.033,-0.004,-59.47,102.14,0
601045.0,-0.014,-0.023,-0.021,-42.7,145.86,0
601050.0,-0.005,0.008,0.017,23.63,14.59,0
601055.0,-0.002,-0.002,-0.018,-5.16,173.33,0
601060.0,0.007,-0.002,-0.016,-5.42,-155.17,0
601065.0,0.005,0.017,-0.016,46.11,-162.6,0
601070.0,-0.017,0.032,-0.04,36.35,157.55,0
601075.0,0.012,-0.002,-0.011,-5.76,-132.66,0
601080.0,0.034,0.017,0.013,25.86,-69.4,0
601085.0,0.034,0.01,0.008,16.54,-76.83,0
601090.0,0.003,0.015,-0.045,18.59,-176.63,0
601095.0,-0.012,0.017,-0.045,20.69,165.32,0
601100.0,0.01,0.01,-0.016,28.7,-148.54,0
601105.0,0.01,-0.016,0.008,-51.85,-51.17,0
601110.0,-0.005,-0.014,0.025,-28.56,10.45,0
601115.0,-0.007,-0.002,0.046,-2.05,8.55,0
601120.0,-0.017,-0.03,-0.006,-59.74,111.37,0
601125.0,-0.007,0.037,-0.05,36.2,172.02,0
601130.0,-0.014,0.008,-0.018,18.79,142.54,0
601135.0,-0.017,0.017,-0.014,39.2,129.56,0
601140.0,0.015,0.001,-0.002,2.8,-96.55,0
601145.0,-0.007,-0.021,0.01,-59.2,34.0,0
601150.0,0.024,-0.021,0.013,-37.33,-62.31,0
601155.0,-0.017,-0.009,-0.018,-19.69,138.14,0
601160.0,-0.007,-0.078,-0.069,-48.58,174.23,0
601165.0,0.094,0.065,0.089,26.8,-46.35,0
601170.0,-0.045,0.006,0.015,6.59,71.57,0
601175.0,-0.096,-0.148,0.037,-55.29,69.02,0
601180.0,0.206,-0.05,0.164,-10.67,-51.58,0
601185.0,-0.198,0.135,-0.454,15.21,156.39,0
601190.0,-0.122,0.305,0.037,67.34,73.27,0
601195.0,0.522,-0.15,0.602,-10.67,-40.95,0
601200.0,-0.148,-0.466,-0.188,-62.79,141.81,0
601205.0,-0.629,-0.011,-0.167,-0.99,104.85,0
601210.0,-0.356,-0.217,-0.624,-16.81,150.27,0
601215.0,-0.471,0.147,-1.146,6.75,157.64,0
601220.0,-0.601,0.556,-0.311,39.44,117.34,0
601225.0,-0.294,0.013,0.104,2.33,70.59,0
601230.0,0.611,0.101,0.187,9.01,-72.94,0
601235.0,-0.127,-0.062,0.353,-9.33,19.75,0
601240.0,-0.297,-0.916,0.161,-69.77,61.49,0
601245.0,0.453,0.185,0.065,22.03,-81.79,0
601250.0,-0.55,0.664,-0.607,39.01,137.82,0
601255.0,-0.184,0.025,-0.519,2.56,160.46,0
601260.0,0.103,0.089,0.353,13.66,-16.31,0
601265.0,-0.347,-0.976,-0.215,-67.32,121.76,0
601270.0,0.079,0.087,0.02,46.77,-75.92,0
601275.0,-0.505,0.365,0.243,33.06,64.34,0
601280.0,0.086,-0.514,0.317,-57.43,-15.26,0
601285.0,-0.421,-0.179,-0.433,-16.5,135.77,0
601290.0,-0.225,0.14,-0.753,10.07,163.39,0
601295.0,-1.044,0.441,-0.837,18.25,128.74,0
601300.0,0.297,-0.291,-0.289,-35.11,-134.2,0
601305.0,-0.886,-0.959,-0.315,-45.58,109.6,0
601310.0,-0.007,-0.22,-0.277,-38.39,178.56,0
601315.0,-0.16,0.243,0.125,50.03,51.98,0
601320.0,-0.122,-0.258,-0.167,-51.29,143.86,0
601325.0,0.031,-0.023,0.152,-8.53,-11.69,0
601330.0,0.347,0.053,-0.421,5.59,-140.45,0
601335.0,-0.301,0.135,-0.083,23.32,105.41,0
601340.0,0.386,0.408,-0.05,46.36,-97.32,0
601345.0,-0.424,-0.196,0.243,-21.84,60.2,0
601350.0,0.297,-0.411,-0.167,-50.34,-119.32,0
601355.0,-0.206,-0.05,0.147,-11.1,54.49,0
601360.0,-0.493,0.044,-0.303,4.33,121.61,0
601365.0,0.043,0.305,-0.047,78.13,-137.42,0
601370.0,0.259,-0.648,-0.356,-55.82,-143.98,0
601375.0,-0.062,-0.076,0.104,-32.14,30.89,0
601380.0,0.199,-0.093,-0.243,-16.42,-140.75,0
601385.0,-0.201,0.345,0.214,49.66,43.21,0
601390.0,0.211,-0.351,-0.045,-58.45,-101.98,0
601395.0,-0.282,0.104,0.202,16.63,54.43,0
601400.0,-0.345,-0.208,-0.191,-27.79,118.98,0
601405.0,0.201,0.413,0.128,59.98,-57.63,0
601410.0,-0.397,-0.327,-0.186,-36.73,115.1,0
601415.0,0.194,-0.078,-0.014,-21.91,-94.02,0
601420.0,-0.287,-0.346,-0.289,-40.38,135.19,0
601425.0,0.209,0.357,0.14,54.93,-56.2,0
601430.0,-0.333,-0.129,-0.155,-19.31,114.98,0
601435.0,0.276,0.104,0.14,18.55,-63.14,0
601440.0,-0.321,-0.402,-0.181,-47.47,119.48,0
601445.0,0.23,0.29,0.156,46.23,-55.8,0
601450.0,-0.321,-0.121,-0.162,-18.67,116.82,0
601455.0,0.141,0.094,0.101,28.4,-54.41,0
601460.0,-0.249,-0.263,-0.246,-36.9,134.67,0
601465.0,0.18,0.123,0.118,29.73,-56.72,0
601470.0,-0.361,-0.033,-0.243,-4.31,123.98,0
601475.0,0.235,0.108,0.154,21.12,-56.76,0
601480.0,-0.311,-0.339,-0.203,-42.42,123.11,0
601485.0,0.213,0.061,0.142,13.3,-56.35,0
601490.0,-0.335,-0.205,-0.198,-27.8,120.59,0
601495.0,0.13,0.271,0.106,58.32,-50.69,0
601500.0,-0.218,-0.169,-0.212,-29.1,134.3,0
601505.0,0.199,0.044,0.137,10.28,-55.41,0
601510.0,-0.266,-0.188,-0.16,-31.31,121.02,0
601515.0,0.17,0.159,0.063,41.17,-69.7,0
601520.0,-0.194,-0.167,-0.193,-31.38,134.93,0
601525.0,0.232,0.192,0.238,30.04,-44.36,0
601530.0,-0.246,-0.358,-0.148,-51.29,120.95,0
601535.0,0.223,0.252,0.144,43.51,-57.07,0
601540.0,-0.191,-0.258,-0.15,-46.68,128.12,0
601545.0,0.175,0.204,0.144,41.99,-50.48,0
601550.0,-0.225,-0.301,-0.153,-47.93,124.15,0
601555.0,0.098,0.183,0.175,42.24,-29.28,0
601560.0,-0.115,-0.131,-0.136,-36.39,139.81,0
601565.0,0.192,0.211,0.173,39.29,-47.93,0
601570.0,-0.268,-0.193,-0.133,-32.85,116.46,0
601575.0,0.189,0.104,0.099,25.88,-62.43,0
601580.0,-0.208,-0.241,-0.229,-37.92,137.76,0
601585.0,0.168,0.247,0.094,52.12,-60.72,0
601590.0,-0.198,-0.275,-0.169,-46.47,130.46,0
601595.0,0.127,0.149,0.185,33.6,-34.49,0
601600.0,-0.124,-0.253,-0.16,-51.36,142.11,0
601605.0,0.158,0.35,0.111,61.12,-54.99,0
601610.0,-0.304,-0.205,-0.172,-30.45,119.47,0
601615.0,0.206,0.247,0.178,42.25,-49.21,0
601620.0,-0.165,-0.344,-0.155,-56.67,133.2,0
601625.0,0.134,0.252,0.056,60.02,-67.45,0
601630.0,-0.167,-0.167,-0.119,-39.1,125.41,0
601635.0,0.065,0.161,0.118,50.11,-28.8,0
601640.0,-0.136,-0.27,-0.157,-52.36,139.11,0
601645.0,0.139,0.226,0.044,57.14,-72.52,0
601650.0,-0.234,-0.136,-0.121,-27.22,117.38,0
601655.0,0.07,0.269,0.166,56.21,-22.78,0
601660.0,-0.213,-0.258,-0.198,-41.57,132.93,0
601665.0,0.197,0.221,0.219,36.93,-41.96,0
601670.0,-0.134,-0.289,-0.114,-58.67,130.47,0
601675.0,0.084,0.278,0.085,66.83,-44.84,0
601680.0,-0.131,-0.291,-0.193,-51.27,145.77,0
601685.0,0.115,0.286,0.132,58.44,-41.02,0
601690.0,-0.115,-0.255,-0.133,-55.45,139.31,0
601695.0,0.051,0.286,0.12,65.43,-22.76,0
601700.0,-0.151,-0.234,-0.155,-47.27,135.81,0
601705.0,0.13,0.286,0.123,58.0,-46.52,0
601710.0,-0.155,-0.248,-0.117,-51.96,126.88,0
601715.0,0.051,0.271,0.154,59.15,-18.17,0
601720.0,-0.055,-0.334,-0.15,-64.46,159.94,0
601725.0,0.146,0.3,0.132,56.67,-47.85,0
601730.0,-0.098,-0.236,-0.066,-63.41,124.11,0
601735.0,0.074,0.355,0.175,61.77,-22.99,0
601740.0,-0.031,-0.332,-0.069,-77.22,155.8,0
601745.0,0.168,0.281,0.147,51.55,-48.83,0
601750.0,-0.129,-0.337,-0.09,-64.94,124.97,0
601755.0,0.007,0.393,0.125,72.31,-3.39,0
601760.0,0.039,-0.325,-0.033,-81.15,-130.4,0
601765.0,0.06,0.3,0.173,58.58,-19.15,0
601770.0,0.0,-0.332,-0.078,-76.73,-179.82,0
601775.0,0.043,0.403,0.101,74.71,-23.17,0
601780.0,-0.002,-0.279,0.01,-87.84,11.82,0
601785.0,0.11,0.257,0.149,54.16,-36.5,0
601790.0,-0.086,-0.289,-0.095,-66.08,137.88,0
601795.0,0.034,0.295,0.12,67.04,-15.66,0
601800.0,0.067,-0.232,0.034,-71.94,-63.03,0
601805.0,0.072,0.334,0.149,63.59,-25.79,0
601810.0,0.062,-0.277,0.049,-74.05,-52.13,0
601815.0,0.132,0.312,0.204,52.07,-32.86,0
601820.0,-0.026,-0.251,-0.042,-78.77,148.38,0
601825.0,0.082,0.24,0.171,51.76,-25.56,0
601830.0,0.086,-0.203,0.013,-66.69,-81.65,0
601835.0,0.017,0.281,0.068,76.03,-14.08,0
601840.0,0.041,-0.15,-0.174,-40.01,-166.76,0
601845.0,0.077,0.293,0.125,63.35,-31.54,0
601850.0,-0.009,-0.176,0.008,-86.03,49.77,0
601855.0,0.031,0.24,0.104,65.72,-16.83,0
601860.0,0.051,-0.26,0.02,-78.22,-68.53,0
601865.0,0.086,0.226,0.161,51.0,-28.21,0
601870.0,0.031,-0.196,-0.026,-78.3,-129.24,0
601875.0,-0.031,0.362,0.135,69.11,12.91,0
601880.0,0.084,-0.344,-0.205,-57.2,-157.73,0
601885.0,-0.017,0.25,0.094,69.07,9.96,0
601890.0,0.034,-0.2,-0.035,-76.32,-136.19,0
601895.0,0.007,0.211,0.154,53.91,-2.76,0
601900.0,0.053,-0.186,0.01,-73.84,-78.99,0
601905.0,-0.019,0.159,0.044,73.27,23.35,0
601910.0,0.067,-0.071,-0.035,-43.12,-117.62,0
601915.0,-0.084,0.214,0.104,58.09,38.87,0
601920.0,-0.354,-0.289,-0.224,-34.58,122.36,0
601925.0,0.007,0.051,0.128,21.75,-3.33,0
601930.0,0.153,-0.133,-0.203,-27.67,-142.88,0
601935.0,-0.072,0.209,0.039,68.69,61.4,0
601940.0,0.086,-0.105,-0.22,-23.91,-158.51,0
601945.0,-0.038,0.125,0.123,44.24,17.22,0
601950.0,0.141,-0.124,-0.153,-30.75,-137.15,0
601955.0,-0.122,0.178,0.144,43.28,40.17,0
601960.0,-0.311,-0.248,-0.208,-33.58,123.72,0
601965.0,-0.124,0.175,0.073,50.65,59.72,0
601970.0,0.144,-0.284,-0.217,-47.49,-146.47,0
601975.0,-0.136,0.058,0.092,19.51,56.06,0
601980.0,0.139,-0.15,-0.21,-30.8,-146.48,0
601985.0,-0.129,0.207,0.101,51.55,51.88,0
601990.0,0.24,-0.301,-0.196,-44.21,-129.22,0
601995.0,-0.203,0.171,0.096,37.19,64.61,0
602000.0,-0.352,-0.263,-0.229,-32.03,123.08,0
602005.0,0.187,0.252,0.087,50.72,-65.07,0
602010.0,-0.359,-0.246,-0.208,-30.67,120.04,0
602015.0,0.209,0.159,0.049,36.55,-76.88,0
602020.0,-0.244,-0.224,-0.15,-38.07,121.6,0
602025.0,0.173,0.266,0.113,52.23,-56.73,0
602030.0,-0.325,-0.299,-0.263,-35.53,128.91,0
602035.0,0.247,0.154,0.073,30.89,-73.62,0
602040.0,-0.28,-0.284,-0.121,-42.97,113.45,0
602045.0,0.17,0.259,0.068,54.75,-68.3,0
602050.0,-0.28,-0.26,-0.232,-35.62,129.6,0
602055.0,0.199,0.159,0.092,35.93,-65.26,0
602060.0,-0.337,-0.241,-0.234,-30.43,124.74,0
602065.0,0.139,0.175,0.049,49.98,-70.74,0
602070.0,-0.333,-0.176,-0.176,-25.11,117.95,0
602075.0,0.194,0.087,0.034,23.79,-80.0,0
602080.0,-0.287,-0.251,-0.255,-33.12,131.67,0
602085.0,0.163,0.18,0.147,39.41,-48.01,0
602090.0,-0.306,-0.222,-0.224,-30.31,126.23,0
602095.0,0.168,0.171,0.111,40.32,-56.56,0
602100.0,-0.213,-0.169,-0.157,-32.6,126.47,0
602105.0,0.163,0.175,0.142,39.07,-48.95,0
602110.0,-0.273,-0.229,-0.191,-34.54,124.98,0
602115.0,0.173,0.082,0.123,21.19,-54.57,0
602120.0,-0.237,-0.2,-0.167,-34.67,125.17,0
602125.0,0.18,0.216,0.12,44.97,-56.19,0
602130.0,-0.328,-0.21,-0.157,-30.01,115.64,0
602135.0,0.175,0.204,0.113,44.41,-57.09,0
602140.0,-0.237,-0.22,-0.203,-35.15,130.58,0
602145.0,0.232,0.187,0.19,31.99,-50.76,0
602150.0,-0.234,-0.253,-0.145,-42.54,121.8,0
602155.0,0.151,0.164,0.125,39.81,-50.35,0
602160.0,-0.191,-0.186,-0.217,-32.73,138.62,0
602165.0,0.199,0.228,0.152,42.37,-52.7,0
602170.0,-0.16,-0.255,-0.131,-51.0,129.27,0
602175.0,0.185,0.187,0.214,33.57,-40.81,0
602180.0,-0.139,-0.232,-0.109,-52.66,128.28,0
602185.0,0.185,0.286,0.154,49.92,-50.17,0
602190.0,-0.28,-0.282,-0.188,-39.87,123.95,0
602195.0,0.125,0.183,0.118,46.77,-46.58,0
602200.0,-0.129,-0.239,-0.188,-46.27,145.59,0
602205.0,0.12,0.221,0.13,51.32,-42.7,0
602210.0,-0.201,-0.186,-0.126,-38.1,122.13,0
602215.0,0.101,0.132,0.085,45.19,-50.02,0
602220.0,-0.148,-0.255,-0.155,-50.0,136.27,0
602225.0,0.149,0.235,0.147,48.41,-45.37,0
602230.0,-0.222,-0.234,-0.143,-41.5,122.73,0
602235.0,0.168,0.252,0.185,45.26,-42.2,0
602240.0,-0.076,-0.315,-0.04,-74.71,117.63,0
602245.0,0.149,0.298,0.154,54.28,-44.0,0
602250.0,-0.201,-0.239,-0.153,-43.42,127.21,0
602255.0,0.122,0.286,0.13,57.99,-43.26,0
602260.0,-0.11,-0.248,-0.114,-57.45,136.1,0
602265.0,0.17,0.247,0.166,46.14,-45.73,0
602270.0,-0.191,-0.253,-0.179,-44.02,133.07,0
602275.0,0.125,0.269,0.111,58.17,-48.37,0
602280.0,-0.117,-0.308,-0.109,-62.52,133.06,0
602285.0,0.058,0.324,0.101,70.21,-29.67,0
602290.0,-0.141,-0.253,-0.164,-49.43,139.39,0
602295.0,0.096,0.319,0.137,62.32,-34.99,0
602300.0,-0.074,-0.322,-0.052,-74.34,125.08,0
602305.0,0.139,0.252,0.192,46.73,-35.89,0
602310.0,-0.019,-0.277,-0.069,-75.57,164.61,0
602315.0,0.127,0.336,0.204,54.39,-31.9,0
602320.0,-0.076,-0.277,-0.059,-70.78,127.75,0
602325.0,0.146,0.302,0.175,52.93,-39.81,0
602330.0,-0.139,-0.236,-0.155,-48.66,138.17,0
602335.0,0.103,0.322,0.118,64.01,-41.16,0
602340.0,-0.117,-0.294,-0.059,-65.94,116.8,0
602345.0,0.127,0.281,0.164,53.59,-37.86,0
602350.0,-0.033,-0.253,-0.117,-64.4,164.07,0
602355.0,-0.002,0.357,0.128,70.35,0.97,0
602360.0,-0.036,-0.342,-0.074,-76.55,154.11,0
602365.0,0.127,0.355,0.18,58.15,-35.19,0
602370.0,-0.103,-0.358,-0.066,-71.16,122.85,0
602375.0,0.108,0.322,0.168,58.12,-32.68,0
602380.0,-0.096,-0.356,-0.076,-71.08,128.47,0
602385.0,0.07,0.396,0.101,72.74,-34.53,0
602390.0,-0.038,-0.21,-0.083,-66.48,155.38,0
602395.0,0.015,0.29,0.12,67.33,-6.91,0
602400.0,0.0,-0.334,-0.076,-77.22,-179.82,0
602405.0,0.086,0.293,0.065,69.69,-52.9,0
602410.0,-0.028,-0.275,-0.09,-70.98,162.48,0
602415.0,0.062,0.319,0.147,63.44,-23.06,0
602420.0,-0.103,-0.265,-0.076,-64.27,126.46,0
602425.0,0.06,0.278,0.087,69.22,-34.66,0
602430.0,0.034,-0.212,-0.085,-66.6,-158.45,0
602435.0,-0.06,0.357,0.14,66.99,23.13,0
602440.0,-0.002,-0.339,-0.141,-67.5,179.12,0
602445.0,0.058,0.324,0.118,67.92,-26.05,0
602450.0,0.003,-0.291,-0.057,-78.97,-177.34,0
602455.0,-0.031,0.345,0.116,70.89,14.95,0
602460.0,-0.002,-0.255,-0.114,-65.91,178.92,0
602465.0,-0.026,0.245,0.085,70.14,17.16,0
602470.0,0.048,-0.203,-0.059,-69.39,-140.86,0
602475.0,-0.05,0.336,0.046,78.54,47.28,0
602480.0,0.039,-0.349,-0.179,-62.32,-167.84,0
602485.0,0.067,0.271,0.113,64.1,-30.71,0
602490.0,0.07,-0.212,-0.006,-71.76,-95.3,0
602495.0,-0.036,0.278,0.144,61.89,13.88,0
602500.0,0.122,-0.172,0.07,-50.6,-60.17,0
602505.0,-0.052,0.197,0.068,66.5,37.73,0
602510.0,0.125,-0.145,-0.023,-48.88,-100.55,0
602515.0,-0.129,0.211,0.044,57.19,71.25,0
602520.0,-0.301,-0.322,-0.076,-46.05,104.13,0
602525.0,-0.002,0.156,0.142,47.75,0.87,0
602530.0,0.06,-0.176,-0.241,-35.38,-166.0,0
602535.0,-0.052,0.199,0.075,65.36,34.98,0
602540.0,0.113,-0.081,-0.184,-20.53,-148.45,0
602545.0,-0.105,0.207,0.101,54.76,46.06,0
602550.0,0.232,-0.133,-0.181,-24.34,-127.94,0
602555.0,-0.167,0.089,0.061,26.65,70.1,0
602560.0,-0.294,-0.277,-0.241,-36.06,129.33,0
602565.0,-0.05,0.216,0.132,56.79,20.7,0
602570.0,0.194,-0.354,-0.174,-53.59,-131.87,0
602575.0,-0.148,0.166,0.044,47.03,73.53,0
602580.0,0.156,-0.2,-0.222,-36.46,-144.92,0
602585.0,-0.088,0.168,0.211,36.3,22.68,0
602590.0,0.146,-0.342,-0.074,-64.4,-116.68,0
602595.0,-0.261,0.187,0.199,29.73,52.59,0
602600.0,-0.258,-0.203,-0.093,-36.46,109.73,0
602605.0,-0.131,0.216,0.147,47.66,41.85,0
602610.0,-0.309,-0.27,-0.174,-37.29,119.42,0
602615.0,0.232,0.099,0.073,22.1,-72.67,0
602620.0,-0.292,-0.186,-0.236,-26.35,129.0,0
602625.0,0.153,0.199,0.017,52.24,-83.5,0
602630.0,-0.385,-0.258,-0.22,-30.18,119.68,0
602635.0,0.266,0.12,0.125,22.28,-64.79,0
602640.0,-0.275,-0.265,-0.227,-36.63,129.5,0
602645.0,0.17,0.183,0.12,41.22,-54.72,0
602650.0,-0.321,-0.174,-0.222,-24.06,124.7,0
602655.0,0.221,0.128,0.08,28.56,-70.12,0
602660.0,-0.273,-0.258,-0.224,-36.14,129.44,0
602665.0,0.113,0.187,0.061,55.67,-61.76,0
602670.0,-0.311,-0.224,-0.203,-31.14,123.11,0
602675.0,0.199,0.152,0.144,31.65,-54.03,0
602680.0,-0.254,-0.193,-0.164,-32.59,122.97,0
602685.0,0.199,0.12,0.106,28.11,-61.94,0
602690.0,-0.294,-0.208,-0.164,-31.62,119.2,0
602695.0,0.17,0.094,0.08,26.59,-64.9,0
602700.0,-0.251,-0.162,-0.246,-24.76,134.39,0
602705.0,0.11,0.171,0.111,47.5,-44.88,0
602710.0,-0.237,-0.2,-0.198,-32.99,129.9,0
602715.0,0.201,0.053,0.142,12.23,-54.81,0
602720.0,-0.222,-0.174,-0.172,-31.78,127.66,0
602725.0,0.153,0.161,0.113,40.19,-53.58,0
602730.0,-0.273,-0.129,-0.215,-20.32,128.22,0
602735.0,0.175,0.125,0.068,33.71,-68.84,0
602740.0,-0.196,-0.181,-0.232,-30.85,139.74,0
602745.0,0.118,0.192,0.106,50.53,-47.94,0
602750.0,-0.21,-0.253,-0.188,-41.86,131.84,0
602755.0,0.218,0.173,0.147,33.36,-56.06,0
602760.0,-0.198,-0.287,-0.141,-49.68,125.3,0
602765.0,0.199,0.223,0.159,41.27,-51.42,0
602770.0,-0.27,-0.2,-0.22,-29.92,129.08,0
602775.0,0.12,0.226,0.092,56.23,-52.6,0
602780.0,-0.206,-0.255,-0.229,-39.68,138.09,0
602785.0,0.139,0.187,0.061,51.02,-66.47,0
602790.0,-0.277,-0.2,-0.162,-31.95,120.29,0
602795.0,0.053,0.195,0.027,73.02,-62.92,0
602800.0,-0.16,-0.215,-0.234,-37.15,145.6,0
602805.0,0.137,0.195,0.075,51.31,-61.27,0
602810.0,-0.287,-0.22,-0.191,-32.49,123.61,0
602815.0,0.051,0.173,0.034,70.58,-55.87,0
602820.0,-0.184,-0.193,-0.208,-34.85,138.43,0
602825.0,0.206,0.211,0.168,38.46,-50.77,0
602830.0,-0.172,-0.258,-0.05,-55.21,106.06,0
602835.0,0.194,0.175,0.18,33.52,-47.12,0
602840.0,-0.069,-0.222,-0.1,-61.31,145.28,0
602845.0,0.153,0.288,0.123,55.69,-51.33,0
602850.0,-0.17,-0.179,-0.133,-39.64,128.15,0
602855.0,0.125,0.192,0.159,43.6,-38.16,0
602860.0,-0.115,-0.33,-0.141,-61.18,140.79,0
602865.0,0.192,0.278,0.168,47.5,-48.73,0
602870.0,-0.167,-0.263,-0.148,-49.64,131.43,0
602875.0,0.153,0.295,0.168,52.35,-42.36,0
602880.0,-0.091,-0.358,-0.174,-61.29,152.47,0
602885.0,0.115,0.283,0.168,54.24,-34.38,0
602890.0,-0.191,-0.236,-0.196,-40.82,135.64,0
602895.0,0.055,0.278,0.101,67.49,-28.64,0
602900.0,-0.1,-0.277,-0.136,-58.64,143.54,0
602905.0,0.074,0.281,0.108,64.9,-34.47,0
602910.0,-0.143,-0.26,-0.191,-47.47,143.07,0
602915.0,0.046,0.247,0.173,54.1,-14.8,0
602920.0,-0.069,-0.275,-0.064,-71.07,132.73,0
602925.0,0.132,0.235,0.118,53.05,-48.18,0
602930.0,-0.074,-0.296,-0.083,-69.41,138.32,0
602935.0,0.115,0.389,0.264,53.45,-23.56,0
602940.0,-0.064,-0.354,-0.064,-75.61,134.79,0
602945.0,0.079,0.355,0.156,63.73,-26.88,0
602950.0,-0.06,-0.313,-0.117,-67.29,152.92,0
602955.0,0.067,0.369,0.116,70.09,-30.19,0
602960.0,-0.076,-0.332,-0.069,-72.81,131.98,0
602965.0,0.173,0.329,0.173,53.36,-44.92,0
602970.0,-0.024,-0.349,-0.04,-82.41,149.34,0
602975.0,0.065,0.3,0.187,56.52,-19.09,0
602980.0,0.043,-0.258,-0.016,-79.84,-110.31,0
602985.0,0.06,0.427,0.147,69.62,-22.27,0
602990.0,-0.028,-0.327,-0.006,-84.9,102.78,0
602995.0,0.079,0.345,0.159,62.82,-26.53,0
603000.0,-0.036,-0.306,-0.081,-73.9,156.15,0
603005.0,0.065,0.264,0.094,66.6,-34.59,0
603010.0,-0.012,-0.236,-0.042,-79.46,164.53,0
603015.0,-0.021,0.223,0.113,62.71,10.66,0
603020.0,-0.017,-0.193,-0.052,-74.24,162.36,0
603025.0,0.024,0.35,0.123,70.33,-11.14,0
603030.0,0.007,-0.227,-0.081,-70.33,-174.74,0
603035.0,-0.014,0.257,0.132,62.6,6.09,0
603040.0,-0.014,-0.241,-0.15,-57.98,174.62,0
603045.0,0.07,0.334,0.113,68.26,-31.6,0
603050.0,0.017,-0.208,-0.09,-66.13,-169.33,0
603055.0,-0.079,0.281,0.063,70.25,51.36,0
603060.0,0.062,-0.291,-0.066,-72.63,-136.7,0
603065.0,0.074,0.238,0.101,62.13,-36.32,0
603070.0,0.046,-0.143,0.008,-72.01,-80.2,0
603075.0,0.053,0.3,0.14,63.55,-20.76,0
603080.0,0.046,-0.351,-0.162,-64.38,-164.24,0
603085.0,0.029,0.286,0.094,70.98,-17.11,0
603090.0,0.06,-0.193,-0.083,-62.05,-144.12,0
603095.0,-0.052,0.219,0.106,61.57,26.31,0
603100.0,0.101,-0.167,-0.011,-58.71,-96.37,0
603105.0,-0.038,0.168,0.061,66.97,32.15,0
603110.0,0.084,-0.138,0.01,-58.5,-83.02,0
603115.0,-0.064,0.271,0.08,69.3,38.93,0
603120.0,-0.277,-0.346,-0.162,-47.15,120.29,0
603125.0,-0.117,0.192,0.171,42.89,34.44,0
603130.0,0.098,-0.155,-0.174,-37.77,-150.52,0
603135.0,-0.076,0.223,0.089,62.25,40.54,0
603140.0,0.089,-0.119,-0.203,-28.26,-156.35,0
603145.0,0.055,0.049,0.065,29.58,-40.24,0
603150.0,0.122,-0.188,-0.322,-28.65,-159.23,0
603155.0,-0.079,0.238,-0.011,71.5,98.13,0
603160.0,-0.318,-0.205,-0.169,-29.65,118.01,0
603165.0,-0.04,0.214,0.082,66.82,26.23,0
603170.0,0.206,-0.356,-0.243,-48.14,-139.75,0
603175.0,-0.187,0.226,0.073,48.45,68.75,0
603180.0,0.134,-0.224,-0.129,-50.35,-133.75,0
603185.0,0.005,0.245,0.192,51.86,-1.5,0
603190.0,-0.009,-0.38,-0.169,-65.95,176.84,0
603195.0,-0.148,0.152,0.128,37.77,49.27,0
603200.0,-0.239,-0.16,-0.141,-29.93,120.44,0
603205.0,-0.139,0.168,0.123,42.26,48.46,0
603210.0,-0.347,-0.255,-0.215,-32.05,121.76,0
603215.0,0.276,0.087,0.092,16.66,-71.59,0
603220.0,-0.366,-0.176,-0.253,-21.63,124.66,0
603225.0,0.146,0.231,0.029,57.09,-78.62,0
603230.0,-0.368,-0.294,-0.212,-34.64,119.96,0
603235.0,0.221,0.118,0.104,25.85,-64.82,0
603240.0,-0.23,-0.193,-0.188,-33.04,129.37,0
603245.0,0.199,0.183,0.113,38.59,-60.35,0
603250.0,-0.251,-0.248,-0.2,-37.69,128.59,0
603255.0,0.213,0.123,0.137,25.84,-57.26,0
603260.0,-0.299,-0.208,-0.2,-29.97,123.83,0
603265.0,0.244,0.269,0.175,41.78,-54.32,0
603270.0,-0.301,-0.224,-0.105,-35.11,109.14,0
603275.0,0.242,0.08,0.101,16.9,-67.3,0
603280.0,-0.203,-0.294,-0.167,-48.16,129.38,0
603285.0,0.168,0.226,0.159,44.34,-46.6,0
603290.0,-0.352,-0.126,-0.191,-17.5,118.48,0
603295.0,0.185,0.142,0.101,33.99,-61.25,0
603300.0,-0.201,-0.172,-0.133,-35.45,123.58,0
603305.0,0.177,0.037,0.063,11.01,-70.46,0
603310.0,-0.246,-0.229,-0.169,-37.47,124.49,0
603315.0,0.101,0.147,0.132,41.41,-37.28,0
603320.0,-0.16,-0.217,-0.16,-43.83,134.91,0
603325.0,0.206,0.173,0.168,33.04,-50.77,0
603330.0,-0.266,-0.227,-0.085,-39.11,107.84,0
603335.0,0.276,0.13,0.135,22.97,-63.93,0
603340.0,-0.208,-0.222,-0.162,-40.08,127.92,0
603345.0,0.206,0.144,0.149,29.57,-54.11,0
603350.0,-0.22,-0.198,-0.16,-36.07,125.97,0
603355.0,0.082,0.092,0.123,31.87,-33.61,0
603360.0,-0.17,-0.114,-0.208,-23.07,140.73,0
603365.0,0.163,0.178,0.14,39.65,-49.43,0
603370.0,-0.237,-0.215,-0.129,-38.56,118.5,0
603375.0,0.173,0.12,0.125,29.45,-54.04,0
603380.0,-0.115,-0.234,-0.193,-46.15,149.31,0
603385.0,0.144,0.238,0.13,50.8,-47.9,0
603390.0,-0.237,-0.2,-0.162,-34.93,124.39,0
603395.0,0.153,0.235,0.142,48.38,-47.23,0
603400.0,-0.167,-0.203,-0.198,-38.03,139.79,0
603405.0,0.201,0.209,0.156,39.35,-52.17,0
603410.0,-0.182,-0.313,-0.121,-55.07,123.74,0
603415.0,0.204,0.108,0.238,19.11,-40.6,0
603420.0,-0.158,-0.234,-0.138,-48.12,131.2,0
603425.0,0.153,0.233,0.132,48.97,-49.22,0
603430.0,-0.182,-0.167,-0.164,-34.25,132.15,0
603435.0,0.072,0.166,0.164,42.88,-23.78,0
603440.0,-0.119,-0.289,-0.196,-51.58,148.58,0
603445.0,0.091,0.245,0.118,58.66,-37.7,0
603450.0,-0.191,-0.255,-0.172,-44.82,131.9,0
603455.0,0.039,0.245,0.108,64.83,-19.57,0
603460.0,-0.136,-0.306,-0.133,-58.06,134.39,0
603465.0,0.177,0.24,0.128,47.7,-54.27,0
603470.0,-0.234,-0.222,-0.143,-38.95,121.38,0
603475.0,0.072,0.204,0.077,62.63,-42.98,0
603480.0,-0.107,-0.236,-0.145,-52.59,143.51,0
603485.0,0.113,0.238,0.173,49.01,-33.08,0
603490.0,-0.127,-0.263,-0.148,-53.47,139.39,0
603495.0,0.122,0.214,0.197,42.67,-31.84,0
603500.0,-0.05,-0.284,-0.016,-79.52,107.78,0
603505.0,0.175,0.314,0.19,50.6,-42.67,0
603510.0,-0.148,-0.303,-0.131,-56.9,131.47,0
603515.0,0.149,0.345,0.142,59.25,-46.32,0
603520.0,-0.086,-0.337,-0.093,-69.44,137.15,0
603525.0,0.115,0.338,0.173,58.43,-33.64,0
603530.0,-0.167,-0.322,-0.179,-52.78,136.9,0
603535.0,0.096,0.305,0.13,62.06,-36.45,0
603540.0,-0.136,-0.358,-0.164,-59.21,140.37,0
603545.0,0.051,0.302,0.065,74.72,-37.7,0
603550.0,-0.091,-0.27,-0.109,-62.22,140.33,0
603555.0,0.065,0.324,0.209,55.96,-17.25,0
603560.0,-0.012,-0.301,-0.095,-72.35,172.96,0
603565.0,0.039,0.324,0.049,79.16,-38.42,0
603570.0,-0.036,-0.251,-0.05,-76.31,144.25,0
603575.0,0.103,0.281,0.192,52.15,-28.22,0
603580.0,-0.098,-0.306,-0.107,-64.62,137.54,0
603585.0,0.137,0.36,0.099,64.88,-54.12,0
603590.0,-0.024,-0.27,-0.021,-83.33,131.31,0
603595.0,0.017,0.314,0.128,67.73,-7.59,0
603600.0,-0.009,-0.318,-0.1,-72.48,174.66,0
603605.0,0.098,0.271,0.149,56.63,-33.41,0
603610.0,-0.036,-0.2,-0.05,-73.05,144.25,0
603615.0,-0.005,0.362,0.128,70.58,2.04,0
603620.0,0.067,-0.258,0.027,-74.29,-68.09,0
603625.0,0.079,0.314,0.164,59.97,-25.86,0
603630.0,0.065,-0.232,-0.03,-72.8,-115.11,0
603635.0,0.003,0.274,0.111,67.94,-1.36,0
603640.0,0.053,-0.306,-0.145,-63.17,-159.99,0
603645.0,0.074,0.324,0.116,66.99,-32.78,0
603650.0,-0.002,-0.224,-0.033,-81.66,176.24,0
603655.0,0.067,0.262,0.202,50.89,-18.43,0
603660.0,0.084,-0.33,0.041,-74.14,-63.76,0
603665.0,0.062,0.252,0.161,55.57,-21.2,0
603670.0,-0.031,-0.153,-0.014,-77.52,113.84,0
603675.0,0.01,0.365,0.125,70.99,-4.48,0
603680.0,0.096,-0.478,-0.186,-66.35,-152.7,0
603685.0,0.031,0.307,0.108,69.82,-16.13,0
603690.0,0.031,-0.188,-0.004,-80.47,-97.39,0
603695.0,0.0,0.341,0.101,73.44,-0.14,0
603700.0,0.094,-0.315,0.085,-68.2,-47.92,0
603705.0,0.048,0.312,0.137,65.01,-19.33,0
603710.0,0.051,-0.212,0.037,-73.63,-54.05,0
603715.0,-0.062,0.319,0.116,67.65,28.2,0
603720.0,-0.359,-0.289,-0.248,-33.51,124.68,0
603725.0,0.034,0.106,0.137,36.9,-13.82,0
603730.0,0.134,-0.246,-0.236,-42.13,-150.39,0
603735.0,-0.045,0.298,0.037,78.93,51.01,0
603740.0,0.067,0.001,-0.203,0.19,-161.65,0
603745.0,0.017,0.178,0.087,63.54,-11.07,0
603750.0,0.173,-0.222,-0.198,-40.19,-138.92,0
603755.0,-0.127,0.137,0.116,38.66,47.6,0
603760.0,-0.354,-0.205,-0.222,-26.15,122.08,0
603765.0,-0.055,0.202,0.101,60.29,28.43,0
603770.0,0.127,-0.471,-0.263,-58.22,-154.17,0
603775.0,-0.026,0.25,0.063,74.73,22.51,0
603780.0,0.134,-0.136,-0.217,-28.0,-148.26,0
603785.0,-0.028,0.233,0.123,61.58,13.06,0
603790.0,0.211,-0.387,-0.255,-49.45,-140.45,0
603795.0,-0.074,0.161,0.017,64.74,76.71,0
603800.0,-0.366,-0.203,-0.296,-23.3,128.97,0
603805.0,-0.064,0.25,0.053,71.48,50.34,0
603810.0,-0.287,-0.322,-0.153,-44.77,117.98,0
603815.0,0.223,0.116,0.168,22.49,-52.94,0
603820.0,-0.361,-0.239,-0.236,-28.94,123.19,0
603825.0,0.165,0.247,0.008,56.19,-87.27,0
603830.0,-0.364,-0.169,-0.172,-22.83,115.27,0
603835.0,0.221,0.029,0.046,7.45,-78.16,0
603840.0,-0.277,-0.222,-0.21,-32.53,127.11,0
603845.0,0.187,0.221,0.152,42.56,-50.98,0
603850.0,-0.349,-0.277,-0.217,-33.96,121.87,0
603855.0,0.17,0.187,0.092,44.11,-61.69,0
603860.0,-0.287,-0.167,-0.186,-26.0,122.94,0
603865.0,0.204,0.175,0.137,35.54,-56.05,0
603870.0,-0.321,-0.277,-0.248,-34.34,127.76,0
603875.0,0.225,0.13,0.14,26.13,-58.22,0
603880.0,-0.266,-0.282,-0.176,-41.47,123.61,0
603885.0,0.149,0.202,0.08,50.11,-61.8,0
603890.0,-0.311,-0.184,-0.263,-24.28,130.18,0
603895.0,0.149,0.147,0.092,40.04,-58.34,0
603900.0,-0.261,-0.267,-0.215,-38.37,129.48,0
603905.0,0.122,0.168,0.108,45.83,-48.44,0
603910.0,-0.356,-0.21,-0.243,-25.94,124.33,0
603915.0,0.185,0.226,0.08,48.31,-66.64,0
603920.0,-0.158,-0.224,-0.119,-48.62,127.02,0
603925.0,0.144,0.108,0.161,26.66,-41.77,0
603930.0,-0.285,-0.287,-0.196,-39.68,124.49,0
603935.0,0.261,0.216,0.197,33.46,-52.97,0
603940.0,-0.239,-0.16,-0.143,-29.82,120.86,0
603945.0,0.211,0.204,0.168,37.12,-51.41,0
603950.0,-0.263,-0.306,-0.196,-43.0,126.63,0
603955.0,0.137,0.13,0.003,43.55,-88.7,0
603960.0,-0.206,-0.205,-0.239,-33.07,139.25,0
603965.0,0.134,0.3,0.171,54.09,-38.2,0
603970.0,-0.313,-0.229,-0.133,-33.93,113.05,0
603975.0,0.201,0.108,0.111,25.26,-61.17,0
603980.0,-0.218,-0.255,-0.315,-33.69,145.39,0
603985.0,0.094,0.31,0.089,67.32,-46.35,0
603990.0,-0.242,-0.26,-0.155,-42.2,122.67,0
603995.0,0.161,0.164,0.154,36.31,-46.22,0
604000.0,-0.282,-0.224,-0.251,-30.72,131.61,0
604005.0,0.101,0.214,0.092,57.49,-47.71,0
604010.0,-0.268,-0.2,-0.313,-25.94,139.43,0
604015.0,0.146,0.089,0.156,22.64,-43.1,0
604020.0,-0.17,-0.318,-0.016,-61.78,95.4,0
604025.0,0.156,0.29,0.147,53.6,-46.72,0
604030.0,-0.194,-0.248,-0.184,-42.93,133.47,0
604035.0,0.199,0.214,0.214,36.21,-42.94,0
604040.0,-0.093,-0.263,-0.042,-68.71,114.47,0
604045.0,0.144,0.199,0.178,41.08,-38.97,0
604050.0,-0.112,-0.129,-0.076,-43.49,124.06,0
604055.0,0.113,0.152,0.147,39.31,-37.54,0
604060.0,-0.239,-0.32,-0.279,-41.03,139.44,0
604065.0,0.144,0.3,0.056,62.78,-68.81,0
604070.0,-0.249,-0.267,-0.188,-40.6,127.14,0
604075.0,0.077,0.334,0.137,64.76,-29.26,0
604080.0,-0.107,-0.361,-0.131,-64.85,140.62,0
604085.0,0.118,0.211,0.101,53.72,-49.25,0
604090.0,-0.184,-0.212,-0.22,-36.54,140.02,0
604095.0,0.072,0.324,0.108,68.1,-33.6,0
604100.0,-0.103,-0.272,-0.023,-68.85,102.74,0
604105.0,0.197,0.18,0.255,29.28,-37.68,0
604110.0,-0.124,-0.248,-0.076,-59.61,121.42,0
604115.0,0.051,0.326,0.104,70.54,-25.98,0
604120.0,-0.117,-0.301,-0.169,-55.63,145.33,0
604125.0,0.101,0.276,0.101,62.63,-44.86,0
604130.0,-0.11,-0.275,-0.141,-56.99,141.98,0
604135.0,0.041,0.245,0.125,61.73,-18.11,0
604140.0,-0.043,-0.232,-0.155,-55.23,164.54,0
604145.0,0.096,0.216,0.185,46.04,-27.42,0
604150.0,-0.158,-0.253,-0.107,-53.01,124.15,0
604155.0,0.134,0.274,0.085,59.89,-57.82,0
604160.0,-0.088,-0.267,-0.021,-71.25,103.27,0
604165.0,0.141,0.417,0.195,60.03,-36.01,0
604170.0,-0.072,-0.404,-0.047,-78.02,123.38,0
604175.0,0.046,0.319,0.132,66.3,-19.05,0
604180.0,-0.057,-0.313,-0.162,-61.22,160.56,0
604185.0,0.11,0.341,0.082,68.01,-53.35,0
604190.0,-0.105,-0.258,-0.069,-64.03,123.18,0
604195.0,0.043,0.29,0.202,54.59,-12.12,0
604200.0,0.003,-0.406,-0.097,-76.51,-178.45,0
604205.0,0.051,0.369,0.106,72.36,-25.47,0
604210.0,-0.052,-0.243,-0.093,-66.38,150.49,0
604215.0,0.036,0.355,0.142,67.58,-14.29,0
604220.0,-0.045,-0.301,-0.074,-74.0,148.38,0
604225.0,0.051,0.211,0.094,63.2,-28.23,0
604230.0,-0.007,-0.296,-0.124,-67.29,176.79,0
604235.0,-0.028,0.365,0.108,72.91,14.72,0
604240.0,-0.036,-0.275,-0.186,-55.4,169.14,0
604245.0,0.077,0.35,0.108,69.22,-35.32,0
604250.0,0.01,-0.267,-0.03,-83.19,-162.11,0
604255.0,-0.009,0.302,0.168,60.86,3.18,0
604260.0,0.027,-0.196,-0.052,-73.39,-152.91,0
604265.0,0.039,0.221,0.08,68.16,-25.8,0
604270.0,0.11,-0.243,-0.016,-65.39,-98.27,0
604275.0,0.01,0.264,0.192,53.91,-2.92,0
604280.0,0.089,-0.27,0.053,-68.99,-58.99,0
604285.0,0.091,0.338,0.199,57.05,-24.58,0
604290.0,0.084,-0.2,0.037,-65.42,-66.45,0
604295.0,-0.007,0.322,0.118,69.81,3.37,0
604300.0,0.067,-0.236,-0.018,-73.55,-105.32,0
604305.0,0.067,0.266,0.123,62.28,-28.71,0
604310.0,0.077,-0.251,-0.03,-71.75,-111.59,0
604315.0,-0.012,0.35,0.161,65.24,4.16,0
604320.0,-0.282,-0.303,-0.229,-39.84,129.07,0
604325.0,0.053,0.259,0.111,64.65,-25.52,0
604330.0,0.11,-0.217,-0.21,-42.47,-152.27,0
604335.0,-0.072,0.264,0.068,69.53,46.57,0
604340.0,0.11,-0.109,-0.141,-31.48,-141.86,0
604345.0,0.015,0.123,0.161,37.2,-5.18,0
604350.0,0.06,-0.145,-0.224,-32.04,-165.0,0
604355.0,-0.117,0.24,0.106,56.66,47.83,0
604360.0,-0.263,-0.33,-0.181,-45.9,124.56,0
604365.0,-0.052,0.092,0.125,34.04,22.72,0
604370.0,0.158,-0.33,-0.224,-50.21,-144.8,0
604375.0,-0.096,0.207,0.063,61.02,56.61,0
604380.0,0.168,-0.267,-0.241,-42.31,-145.16,0
604385.0,-0.002,0.207,0.132,57.35,0.93,0
604390.0,0.185,-0.39,-0.229,-52.93,-141.14,0
604395.0,-0.103,0.24,0.003,66.83,88.26,0
604400.0,-0.34,-0.198,-0.198,-26.73,120.23,0
604405.0,0.007,0.235,0.092,68.65,-4.63,0
604410.0,0.206,-0.402,-0.26,-50.41,-141.62,0
604415.0,0.216,0.199,0.017,42.66,-85.37,0
604420.0,-0.275,-0.203,-0.191,-31.2,124.75,0
604425.0,0.187,0.161,0.058,39.45,-72.72,0
604430.0,-0.414,-0.349,-0.222,-36.6,118.2,0
604435.0,0.285,0.101,0.073,18.99,-75.73,0
604440.0,-0.376,-0.153,-0.181,-20.09,115.76,0
604445.0,0.132,0.329,0.061,66.17,-65.34,0
604450.0,-0.345,-0.279,-0.267,-32.64,127.82,0
604455.0,0.23,0.116,0.113,24.27,-63.79,0
604460.0,-0.335,-0.272,-0.234,-33.68,124.93,0
604465.0,0.125,0.204,0.056,56.21,-65.91,0
604470.0,-0.325,-0.198,-0.203,-27.31,121.93,0
604475.0,0.216,0.037,0.087,8.95,-68.06,0
604480.0,-0.347,-0.2,-0.205,-26.44,120.6,0
604485.0,0.125,0.199,0.046,56.3,-69.67,0
604490.0,-0.328,-0.148,-0.265,-19.31,128.96,0
604495.0,0.177,0.065,0.063,19.15,-70.46,0
604500.0,-0.306,-0.212,-0.241,-28.59,128.21,0
604505.0,0.153,0.089,0.125,24.27,-50.79,0
604510.0,-0.325,-0.143,-0.22,-20.01,124.01,0
604515.0,0.185,0.104,0.073,27.6,-68.55,0
604520.0,-0.27,-0.133,-0.184,-22.2,124.19,0
604525.0,0.101,0.18,0.063,56.61,-58.01,0
604530.0,-0.234,-0.277,-0.265,-38.06,138.51,0
604535.0,0.163,0.168,0.13,38.91,-51.43,0
604540.0,-0.254,-0.313,-0.131,-47.64,117.32,0
604545.0,0.197,0.276,0.087,52.1,-66.15,0
604550.0,-0.325,-0.26,-0.169,-35.36,117.49,0
604555.0,0.192,0.226,0.106,45.85,-61.05,0
604560.0,-0.311,-0.263,-0.311,-30.86,134.96,0
604565.0,0.079,0.226,0.065,65.53,-50.49,0
604570.0,-0.304,-0.172,-0.263,-23.14,130.84,0
604575.0,0.115,0.116,0.029,44.21,-75.66,0
604580.0,-0.275,-0.215,-0.248,-30.09,132.07,0
604585.0,0.177,0.161,0.161,33.91,-47.75,0
604590.0,-0.28,-0.145,-0.184,-23.47,123.27,0
604595.0,0.127,0.152,0.075,45.76,-59.48,0
604600.0,-0.146,-0.191,-0.136,-43.77,132.95,0
604605.0,0.175,0.149,0.238,26.81,-36.36,0
604610.0,-0.297,-0.212,-0.279,-27.53,133.29,0
604615.0,0.194,0.238,0.096,47.64,-63.58,0
604620.0,-0.198,-0.205,-0.133,-40.63,123.9,0
604625.0,0.146,0.18,0.147,41.02,-44.91,0
604630.0,-0.227,-0.275,-0.193,-42.64,130.38,0
604635.0,0.091,0.137,0.08,48.55,-48.85,0
604640.0,-0.208,-0.141,-0.217,-25.05,136.23,0
604645.0,0.079,0.214,0.12,56.01,-33.35,0
604650.0,-0.22,-0.222,-0.176,-38.2,128.73,0
604655.0,0.108,0.077,0.104,27.32,-46.17,0
604660.0,-0.222,-0.229,-0.241,-34.93,137.31,0
604665.0,0.103,0.252,0.087,61.85,-49.9,0
604670.0,-0.23,-0.153,-0.246,-24.39,136.96,0
604675.0,0.07,0.202,0.051,66.84,-53.8,0
604680.0,-0.143,-0.296,-0.193,-50.91,143.42,0
604685.0,0.153,0.25,0.159,48.52,-44.03,0
604690.0,-0.172,-0.272,-0.109,-53.16,122.44,0
604695.0,0.055,0.214,0.159,51.83,-19.21,0
604700.0,-0.172,-0.267,-0.22,-43.79,141.9,0
604705.0,0.185,0.274,0.142,49.6,-52.44,0
604710.0,-0.201,-0.272,-0.138,-48.15,124.52,0
604715.0,0.084,0.247,0.106,61.32,-38.39,0
604720.0,-0.124,-0.224,-0.164,-47.42,142.93,0
604725.0,0.089,0.3,0.132,62.01,-33.86,0
604730.0,-0.103,-0.275,-0.114,-60.78,138.03,0
604735.0,0.036,0.235,0.108,64.09,-18.44,0
604740.0,-0.062,-0.241,-0.162,-54.25,159.06,0
604745.0,0.079,0.326,0.116,66.75,-34.42,0
604750.0,-0.129,-0.272,-0.076,-61.19,120.46,0
604755.0,0.029,0.281,0.132,64.24,-12.34,0
604760.0,-0.122,-0.308,-0.212,-51.53,150.15,0
604765.0,0.108,0.326,0.046,70.21,-66.83,0
604770.0,-0.124,-0.215,-0.157,-46.97,141.69,0
604775.0,0.058,0.257,0.199,51.06,-16.14,0
604780.0,-0.014,-0.327,-0.069,-77.9,168.38,0
604785.0,0.115,0.338,0.12,63.78,-43.72,0
604790.0,-0.119,-0.27,-0.095,-60.5,128.51,0
604795.0,0.029,0.379,0.187,63.41,-8.78,0
604800.0,0.007,-0.399,-0.045,-83.51,-170.59,0
604805.0,0.089,0.262,0.14,57.7,-32.47,0
604810.0,-0.064,-0.287,-0.121,-64.38,152.05,0
604815.0,0.024,0.494,0.104,77.84,-13.13,0
604820.0,0.046,-0.375,-0.047,-80.07,-135.89,0
604825.0,0.091,0.192,0.156,46.73,-30.26,0
604830.0,-0.026,-0.356,-0.047,-81.39,151.04,0
604835.0,0.036,0.432,0.113,74.6,-17.71,0
604840.0,-0.081,-0.267,-0.078,-67.14,133.97,0
604845.0,0.079,0.278,0.144,59.4,-28.76,0
604850.0,-0.05,-0.33,-0.121,-68.29,157.6,0
604855.0,0.005,0.357,0.063,79.98,-4.57,0
604860.0,0.041,-0.27,-0.026,-79.85,-122.04,0
604865.0,0.058,0.312,0.171,59.99,-18.68,0
604870.0,0.015,-0.39,-0.069,-79.78,-168.0,0
604875.0,0.024,0.353,0.164,64.89,-8.41,0
604880.0,0.053,-0.332,-0.22,-55.78,-166.45,0
604885.0,0.048,0.384,0.166,65.77,-16.17,0
604890.0,0.0,-0.251,-0.021,-85.25,-179.34,0
604895.0,-0.024,0.329,0.14,66.7,9.64,0
604900.0,0.046,-0.356,-0.066,-77.25,-145.41,0
604905.0,-0.005,0.35,0.051,81.68,5.1,0
604910.0,0.036,-0.241,0.006,-81.38,-81.34,0
604915.0,0.003,0.278,0.094,71.32,-1.6,0
604920.0,-0.34,-0.356,-0.186,-42.59,118.7,0
604925.0,0.005,0.29,0.104,70.33,-2.78,0
604930.0,0.0,-0.145,-0.018,-82.77,-179.26,0
604935.0,-0.043,0.231,0.13,59.3,18.24,0
604940.0,0.086,-0.248,-0.188,-50.14,-155.36,0
604945.0,-0.115,0.19,0.14,46.42,39.41,0
604950.0,0.079,-0.15,-0.2,-34.86,-158.42,0
604955.0,-0.009,0.259,0.051,78.69,10.38,0
604960.0,-0.436,-0.346,-0.296,-33.34,124.22,0
604965.0,-0.014,0.137,0.022,79.12,32.39,0
604970.0,0.18,-0.205,-0.217,-36.05,-140.38,0
604975.0,0.027,0.204,0.053,73.72,-26.46,0
604980.0,0.098,-0.313,-0.263,-48.13,-159.46,0
604985.0,-0.036,0.149,0.041,69.87,40.74,0
604990.0,0.221,-0.26,-0.169,-43.11,-127.51,0
604995.0,-0.141,0.209,0.094,50.96,56.29,0
605000.0,-0.373,-0.32,-0.236,-35.93,122.34,0
605005.0,-0.05,0.262,0.094,67.84,28.0,0
605010.0,0.173,-0.339,-0.148,-56.19,-130.56,0
605015.0,-0.122,0.18,0.101,48.69,50.27,0
605020.0,-0.311,-0.26,-0.275,-32.1,131.44,0
605025.0,0.254,0.214,0.101,38.02,-68.26,0
605030.0,-0.368,-0.279,-0.133,-35.49,109.9,0
605035.0,0.197,0.14,0.152,29.35,-52.37,0
605040.0,-0.309,-0.239,-0.239,-31.46,127.72,0
605045.0,0.175,0.173,0.089,41.38,-62.97,0
605050.0,-0.352,-0.243,-0.21,-30.73,120.84,0
605055.0,0.13,0.089,0.02,34.27,-81.28,0
605060.0,-0.263,-0.169,-0.172,-28.32,123.12,0
605065.0,0.144,0.204,0.142,45.29,-45.38,0
605070.0,-0.364,-0.26,-0.227,-31.27,121.94,0
605075.0,0.237,0.106,0.075,23.09,-72.47,0
605080.0,-0.301,-0.22,-0.188,-31.7,122.01,0
605085.0,0.209,0.211,0.159,38.89,-52.72,0
605090.0,-0.301,-0.296,-0.188,-39.8,122.01,0
605095.0,0.209,0.116,0.166,23.46,-51.49,0
605100.0,-0.177,-0.169,-0.136,-37.2,127.5,0
605105.0,0.187,0.152,0.12,34.27,-57.22,0
605110.0,-0.304,-0.16,-0.196,-23.84,122.77,0
605115.0,0.12,0.108,0.082,36.73,-55.6,0
605120.0,-0.158,-0.16,-0.203,-31.86,142.12,0
605125.0,0.165,0.087,0.082,25.2,-63.6,0
605130.0,-0.321,-0.265,-0.143,-37.06,114.03,0
605135.0,0.187,0.116,0.111,28.01,-59.34,0
605140.0,-0.177,-0.193,-0.179,-37.52,135.31,0
605145.0,0.192,0.262,0.161,46.25,-49.96,0
605150.0,-0.273,-0.241,-0.138,-38.26,116.87,0
605155.0,0.218,0.152,0.128,30.95,-59.67,0
605160.0,-0.189,-0.193,-0.136,-39.71,125.7,0
605165.0,0.163,0.13,0.132,31.76,-50.92,0
605170.0,-0.263,-0.222,-0.153,-36.12,120.1,0
605175.0,0.18,0.135,0.089,33.88,-63.59,0
605180.0,-0.177,-0.255,-0.167,-46.41,133.32,0
605185.0,0.101,0.247,0.125,56.98,-38.83,0
605190.0,-0.263,-0.234,-0.215,-34.56,129.22,0
605195.0,0.153,0.202,0.118,46.19,-52.44,0
605200.0,-0.196,-0.198,-0.176,-36.89,131.98,0
605205.0,0.113,0.152,0.106,44.39,-46.75,0
605210.0,-0.258,-0.215,-0.251,-30.82,134.14,0
605215.0,0.074,0.154,0.039,61.36,-62.34,0
605220.0,-0.158,-0.174,-0.124,-40.96,128.12,0
605225.0,0.134,0.259,0.18,49.07,-36.69,0
605230.0,-0.194,-0.303,-0.179,-49.01,132.72,0
605235.0,0.218,0.209,0.18,36.45,-50.42,0
605240.0,-0.072,-0.239,-0.006,-73.24,95.16,0
605245.0,0.115,0.305,0.135,59.81,-40.51,0
605250.0,-0.208,-0.291,-0.191,-45.91,132.53,0
605255.0,0.185,0.171,0.149,35.73,-51.06,0
605260.0,-0.16,-0.337,-0.181,-54.32,138.53,0
605265.0,0.127,0.276,0.156,53.87,-39.12,0
605270.0,-0.129,-0.217,-0.078,-55.2,121.24,0
605275.0,0.051,0.178,0.017,73.27,-70.92,0
605280.0,-0.151,-0.169,-0.263,-29.21,150.17,0
605285.0,0.086,0.276,0.19,52.92,-24.48,0
605290.0,-0.158,-0.287,-0.126,-54.82,128.65,0
605295.0,0.139,0.219,0.125,49.43,-48.01,0
605300.0,-0.184,-0.368,-0.141,-57.81,127.36,0
605305.0,0.115,0.355,0.087,67.89,-52.96,0
605310.0,-0.175,-0.26,-0.164,-47.34,133.3,0
605315.0,0.058,0.305,0.116,67.02,-26.52,0
605320.0,-0.091,-0.33,-0.09,-68.78,134.85,0
605325.0,0.141,0.199,0.197,39.42,-35.68,0
605330.0,-0.112,-0.186,-0.097,-51.37,130.95,0
605335.0,0.048,0.283,0.087,70.67,-28.97,0
605340.0,-0.062,-0.311,-0.09,-70.57,145.51,0
605345.0,0.17,0.314,0.199,50.17,-40.48,0
605350.0,-0.155,-0.301,-0.071,-60.41,114.59,0
605355.0,0.12,0.317,0.135,60.33,-41.67,0
605360.0,-0.124,-0.313,-0.174,-55.65,144.48,0
605365.0,0.132,0.211,0.111,50.82,-49.96,0
605370.0,-0.088,-0.289,-0.054,-70.26,121.6,0
605375.0,0.055,0.322,0.159,62.4,-19.21,0
605380.0,-0.026,-0.243,-0.112,-64.75,166.86,0
605385.0,0.115,0.331,0.19,56.15,-31.24,0
605390.0,-0.057,-0.368,-0.04,-79.26,124.94,0
605395.0,0.067,0.326,0.132,65.53,-26.94,0
605400.0,-0.057,-0.344,-0.109,-70.26,152.39,0
605405.0,0.101,0.336,0.113,65.71,-41.67,0
605410.0,-0.096,-0.279,-0.085,-65.36,131.82,0
605415.0,-0.009,0.36,0.085,76.71,6.3,0
605420.0,-0.028,-0.308,-0.102,-71.0,164.43,0
605425.0,0.055,0.298,0.116,66.7,-25.56,0
605430.0,-0.05,-0.291,-0.114,-66.83,156.34,0
605435.0,0.01,0.319,0.094,73.49,-5.96,0
605440.0,0.022,-0.243,-0.179,-53.5,-173.05,0
605445.0,0.039,0.252,0.128,62.13,-16.81,0
605450.0,-0.024,-0.2,-0.052,-74.09,155.48,0
605455.0,-0.036,0.362,0.049,80.55,36.28,0
605460.0,0.058,-0.306,-0.066,-73.96,-138.98,0
605465.0,0.015,0.276,0.104,69.23,-8.02,0
605470.0,0.041,-0.267,-0.018,-80.47,-114.24,0
605475.0,-0.036,0.336,0.089,74.02,21.78,0
605480.0,0.07,-0.363,-0.227,-56.85,-162.92,0
605485.0,0.079,0.283,0.168,56.7,-25.21,0
605490.0,-0.014,-0.263,0.01,-86.19,53.92,0
605495.0,0.017,0.288,0.085,73.34,-11.37,0
605500.0,0.003,-0.141,-0.057,-67.99,-177.34,0
605505.0,-0.019,0.197,0.089,65.14,11.96,0
605510.0,0.053,-0.217,-0.023,-75.1,-113.7,0
605515.0,-0.081,0.3,0.032,73.79,68.58,0
605520.0,-0.383,-0.354,-0.167,-40.26,113.55,0
605525.0,-0.031,0.211,0.125,58.61,13.86,0
605530.0,0.096,-0.2,-0.184,-44.04,-152.4,0
605535.0,-0.098,0.25,0.118,58.44,39.68,0
605540.0,0.031,-0.114,-0.164,-34.3,-169.2,0
605545.0,-0.062,0.211,0.087,63.21,35.51,0
605550.0,0.103,-0.15,-0.184,-35.48,-150.67,0
605555.0,-0.043,0.207,0.123,57.81,19.24,0
605560.0,-0.352,-0.289,-0.191,-35.84,118.48,0
605565.0,-0.057,0.269,0.135,61.43,23.0,0
605570.0,0.12,-0.411,-0.188,-61.48,-147.52,0
605575.0,-0.129,0.211,0.116,50.66,48.14,0
605580.0,0.153,-0.275,-0.141,-52.85,-132.48,0
605585.0,-0.019,0.278,0.132,64.34,8.13,0
605590.0,0.165,-0.358,-0.282,-47.64,-149.58,0
605595.0,-0.079,0.187,0.001,67.21,89.48,0
605600.0,-0.349,-0.241,-0.212,-30.53,121.3,0
605605.0,-0.021,0.137,0.039,72.04,28.64,0
605610.0,-0.388,-0.279,-0.208,-32.43,118.17,0
605615.0,0.24,0.195,0.137,35.18,-60.21,0
605620.0,-0.304,-0.188,-0.179,-28.12,120.48,0
605625.0,0.213,0.216,0.12,41.43,-60.55,0
605630.0,-0.354,-0.334,-0.196,-39.58,118.92,0
605635.0,0.192,0.202,0.008,46.44,-87.64,0
605640.0,-0.249,-0.224,-0.179,-36.21,125.71,0
605645.0,0.17,0.204,0.135,43.25,-51.63,0
605650.0,-0.316,-0.339,-0.229,-41.01,125.96,0
605655.0,0.314,0.123,0.161,19.19,-62.83,0
605660.0,-0.301,-0.172,-0.109,-28.16,109.95,0
605665.0,0.189,0.175,0.13,37.38,-55.53,0
605670.0,-0.246,-0.232,-0.172,-37.63,124.87,0
605675.0,0.165,0.104,0.087,29.02,-62.29,0
605680.0,-0.234,-0.246,-0.188,-39.27,128.8,0
605685.0,0.127,0.175,0.099,47.46,-52.13,0
605690.0,-0.368,-0.303,-0.222,-35.19,121.06,0
605695.0,0.199,0.144,0.044,35.32,-77.58,0
605700.0,-0.287,-0.153,-0.243,-22.06,130.3,0
605705.0,0.122,0.187,0.142,45.01,-40.75,0
605710.0,-0.256,-0.215,-0.124,-37.07,115.81,0
605715.0,0.206,0.073,0.075,18.3,-70.02,0
605720.0,-0.246,-0.255,-0.208,-38.41,130.12,0
605725.0,0.221,0.202,0.132,38.12,-59.02,0
605730.0,-0.347,-0.227,-0.191,-29.8,118.81,0
605735.0,0.189,0.185,0.082,41.88,-66.56,0
605740.0,-0.234,-0.203,-0.212,-32.67,132.18,0
605745.0,0.11,0.156,0.089,47.76,-51.02,0
605750.0,-0.251,-0.277,-0.21,-40.24,129.9,0
605755.0,0.144,0.104,0.085,31.85,-59.57,0
605760.0,-0.206,-0.167,-0.184,-31.18,131.76,0
605765.0,0.158,0.164,0.175,34.68,-42.04,0
605770.0,-0.285,-0.246,-0.162,-36.89,119.66,0
605775.0,0.204,0.187,0.197,33.48,-45.96,0
605780.0,-0.175,-0.215,-0.205,-38.56,139.61,0
605785.0,0.144,0.259,0.096,56.25,-56.16,0
605790.0,-0.155,-0.308,-0.105,-58.7,123.95,0
605795.0,0.13,0.19,0.113,47.82,-48.84,0
605800.0,-0.232,-0.232,-0.193,-37.48,129.79,0
605805.0,0.163,0.231,0.12,48.68,-53.55,0
605810.0,-0.277,-0.265,-0.203,-37.64,126.16,0
605815.0,0.058,0.128,0.089,50.2,-32.87,0
605820.0,-0.155,-0.172,-0.208,-33.51,143.18,0
605825.0,0.149,0.195,0.128,44.81,-49.36,0
605830.0,-0.237,-0.234,-0.148,-39.97,121.96,0
605835.0,0.149,0.171,0.106,43.07,-54.5,0
605840.0,-0.206,-0.277,-0.203,-43.8,134.6,0
605845.0,0.11,0.243,0.082,60.44,-53.35,0
605850.0,-0.22,-0.294,-0.212,-43.85,133.98,0
605855.0,0.115,0.192,0.089,52.84,-52.21,0
605860.0,-0.062,-0.205,-0.066,-66.13,136.92,0
605865.0,0.134,0.231,0.161,47.7,-39.81,0
605870.0,-0.187,-0.232,-0.191,-40.95,135.65,0
605875.0,0.125,0.185,0.113,47.69,-47.76,0
605880.0,-0.115,-0.246,-0.105,-57.73,132.37,0
605885.0,0.12,0.29,0.142,57.38,-40.19,0
605890.0,-0.196,-0.322,-0.167,-51.4,130.4,0
605895.0,0.098,0.288,0.094,64.7,-46.28,0
605900.0,-0.119,-0.315,-0.184,-55.21,146.95,0
605905.0,0.103,0.365,0.051,72.48,-63.7,0
605910.0,-0.115,-0.334,-0.047,-69.66,112.36,0
605915.0,0.137,0.336,0.216,52.71,-32.31,0
605920.0,-0.088,-0.38,-0.052,-74.9,120.46,0
605925.0,0.177,0.329,0.195,51.3,-42.35,0
605930.0,-0.143,-0.212,-0.095,-50.99,123.54,0
605935.0,0.103,0.343,0.137,63.42,-36.95,0
605940.0,-0.062,-0.394,-0.119,-71.21,152.47,0
605945.0,0.127,0.283,0.152,55.07,-39.99,0
605950.0,-0.127,-0.318,-0.141,-59.23,137.98,0
605955.0,-0.036,0.322,-0.002,83.66,92.69,0
605960.0,-0.057,-0.27,-0.148,-59.58,158.83,0
605965.0,0.062,0.219,0.171,50.25,-20.11,0
605970.0,-0.143,-0.232,-0.117,-51.4,129.11,0
605975.0,0.036,0.298,0.061,76.67,-30.83,0
605980.0,-0.088,-0.217,-0.129,-54.31,145.51,0
605985.0,0.048,0.319,0.125,67.2,-21.02,0
605990.0,-0.045,-0.346,-0.078,-75.37,149.97,0
605995.0,0.048,0.305,0.108,68.73,-23.93,0
606000.0,0.015,-0.303,-0.047,-80.75,-162.8,0
606005.0,0.12,0.367,0.183,59.23,-33.29,0
606010.0,-0.04,-0.315,-0.023,-81.58,119.86,0
606015.0,-0.012,0.391,0.12,72.8,5.56,0
606020.0,-0.007,-0.241,-0.105,-66.49,176.2,0
606025.0,0.036,0.322,0.003,83.56,-85.08,0
606030.0,-0.012,-0.263,-0.069,-75.14,170.31,0
606035.0,-0.024,0.187,0.149,51.14,9.03,0
606040.0,-0.017,-0.311,-0.255,-50.5,176.3,0
606045.0,0.084,0.393,0.096,71.98,-41.05,0
606050.0,0.007,-0.191,0.034,-79.6,-12.23,0
606055.0,0.01,0.357,0.168,64.75,-3.34,0
606060.0,0.043,-0.332,-0.042,-79.66,-134.36,0
606065.0,0.036,0.25,0.07,72.46,-27.26,0
606070.0,0.07,-0.198,-0.033,-68.75,-115.21,0
606075.0,-0.079,0.276,0.099,65.39,38.54,0
606080.0,-0.002,-0.397,-0.162,-67.77,179.24,0
606085.0,0.051,0.168,0.046,67.87,-47.55,0
606090.0,0.067,-0.198,-0.069,-64.09,-135.61,0
606095.0,-0.064,0.312,0.123,66.03,27.67,0
606100.0,0.089,-0.188,-0.023,-64.02,-104.65,0
606105.0,0.034,0.214,0.137,56.54,-13.82,0
606110.0,0.077,-0.272,-0.062,-70.12,-128.68,0
606115.0,-0.076,0.278,0.094,66.48,39.07,0
606120.0,-0.38,-0.382,-0.153,-43.01,111.85,0
606125.0,0.043,0.252,0.051,75.13,-40.36,0
606130.0,0.125,-0.234,-0.184,-46.5,-145.81,0
606135.0,-0.122,0.274,0.128,57.19,43.68,0
606140.0,0.153,-0.236,-0.239,-39.78,-147.26,0
606145.0,0.058,0.202,0.008,73.9,-82.2,0
606150.0,0.127,-0.203,-0.299,-32.0,-156.93,0
606155.0,0.022,0.257,-0.021,83.31,-133.71,0
606160.0,-0.376,-0.311,-0.227,-35.29,121.11,0
606165.0,0.027,0.324,0.137,66.67,-10.96,0
606170.0,0.108,-0.428,-0.188,-63.09,-150.18,0
606175.0,-0.124,0.259,0.152,52.92,39.35,0
606180.0,0.153,-0.308,-0.203,-50.47,-142.88,0
606185.0,-0.088,0.266,0.085,65.35,46.27,0
606190.0,0.141,-0.308,-0.227,-49.06,-148.03,0
606195.0,-0.057,0.185,0.111,56.02,27.3,0
606200.0,-0.256,-0.188,-0.138,-32.94,118.36,0
606205.0,-0.146,0.214,0.252,36.28,30.04,0
606210.0,-0.263,-0.394,-0.131,-53.3,116.46,0
606215.0,0.247,0.171,0.085,33.2,-71.1,0
606220.0,-0.335,-0.22,-0.208,-29.12,121.79,0
606225.0,0.194,0.25,0.154,45.22,-51.59,0
606230.0,-0.33,-0.248,-0.203,-32.65,121.56,0
606235.0,0.237,0.094,0.061,21.02,-75.68,0
606240.0,-0.28,-0.239,-0.224,-33.64,128.71,0
606245.0,0.141,0.156,0.113,40.78,-51.33,0
606250.0,-0.364,-0.243,-0.203,-30.32,119.14,0
606255.0,0.173,0.178,0.041,45.06,-76.51,0
606260.0,-0.256,-0.155,-0.193,-25.78,127.05,0
606265.0,0.175,0.089,0.135,22.01,-52.4,0
606270.0,-0.275,-0.289,-0.198,-40.45,125.74,0
606275.0,0.216,0.113,0.101,25.42,-64.85,0
606280.0,-0.299,-0.145,-0.172,-22.85,119.86,0
606285.0,0.194,0.25,0.111,48.16,-60.28,0
606290.0,-0.33,-0.282,-0.15,-37.85,114.45,0
606295.0,0.261,0.125,0.156,22.36,-59.1,0
606300.0,-0.242,-0.196,-0.2,-31.93,129.68,0
606305.0,0.144,0.209,0.075,52.18,-62.49,0
606310.0,-0.306,-0.22,-0.246,-29.21,128.76,0
606315.0,0.189,0.099,0.128,23.41,-56.03,0
606320.0,-0.227,-0.236,-0.193,-38.39,130.38,0
606325.0,0.132,0.13,0.058,42.04,-66.2,0
606330.0,-0.268,-0.181,-0.169,-29.77,122.29,0
606335.0,0.161,0.099,0.147,24.44,-47.59,0
606340.0,-0.16,-0.255,-0.141,-50.17,131.26,0
606345.0,0.192,0.243,0.171,43.37,-48.33,0
606350.0,-0.225,-0.258,-0.124,-45.14,118.84,0
606355.0,0.204,0.207,0.166,38.18,-50.84,0
606360.0,-0.232,-0.234,-0.176,-38.75,127.26,0
606365.0,0.182,0.216,0.116,45.05,-57.6,0
606370.0,-0.261,-0.263,-0.138,-41.67,117.92,0
606375.0,0.106,0.144,0.128,41.08,-39.6,0
606380.0,-0.239,-0.153,-0.222,-25.05,132.86,0
606385.0,0.053,0.209,0.039,72.54,-53.59,0
606390.0,-0.22,-0.232,-0.222,-36.53,135.25,0
606395.0,0.122,0.08,0.12,24.91,-45.45,0
606400.0,-0.244,-0.234,-0.198,-36.67,129.06,0
606405.0,0.141,0.223,0.096,52.52,-55.71,0
606410.0,-0.299,-0.153,-0.184,-23.49,121.55,0
606415.0,0.146,0.164,0.135,39.42,-47.34,0
606420.0,-0.141,-0.299,-0.162,-54.26,138.98,0
606425.0,0.134,0.166,0.132,41.34,-45.41,0
606430.0,-0.21,-0.239,-0.181,-40.68,130.74,0
606435.0,0.125,0.245,0.101,56.73,-50.93,0
606440.0,-0.191,-0.267,-0.124,-49.57,122.91,0
606445.0,0.189,0.19,0.106,41.18,-60.75,0
606450.0,-0.227,-0.272,-0.169,-43.85,126.69,0
606455.0,0.156,0.197,0.178,39.8,-41.22,0
606460.0,-0.064,-0.193,-0.095,-59.28,145.88,0
606465.0,0.146,0.226,0.166,45.59,-41.4,0
606470.0,-0.155,-0.315,-0.088,-60.48,119.49,0
606475.0,0.094,0.211,0.166,47.98,-29.43,0
606480.0,-0.143,-0.217,-0.176,-43.68,140.9,0
606485.0,0.11,0.274,0.108,60.51,-45.5,0
606490.0,-0.165,-0.186,-0.119,-42.45,125.8,0
606495.0,0.096,0.14,0.156,37.26,-31.55,0
606500.0,-0.036,-0.346,-0.064,-78.07,150.84,0
606505.0,0.122,0.3,0.14,58.25,-41.23,0
606510.0,-0.141,-0.224,-0.112,-51.26,128.41,0
606515.0,0.115,0.278,0.221,48.17,-27.53,0
606520.0,-0.074,-0.32,-0.014,-76.77,100.45,0
606525.0,0.084,0.219,0.166,49.61,-26.86,0
606530.0,-0.1,-0.191,-0.148,-46.9,145.82,0
606535.0,0.134,0.214,0.075,54.27,-60.84,0
606540.0,-0.026,-0.289,0.003,-84.8,83.2,0
606545.0,0.137,0.274,0.25,43.87,-28.7,0
606550.0,-0.084,-0.294,-0.064,-70.3,127.42,0
606555.0,0.062,0.427,0.171,66.93,-20.11,0
606560.0,-0.067,-0.339,-0.112,-69.0,149.14,0
606565.0,0.094,0.271,0.015,70.73,-80.85,0
606570.0,-0.081,-0.366,-0.095,-71.13,139.51,0
606575.0,0.086,0.305,0.183,56.45,-25.32,0
606580.0,-0.036,-0.291,-0.011,-82.68,107.51,0
606585.0,0.113,0.35,0.18,58.74,-32.03,0
606590.0,0.01,-0.248,-0.023,-84.2,-157.09,0
606595.0,0.041,0.322,0.168,61.69,-13.67,0
606600.0,-0.024,-0.291,-0.102,-70.19,166.95,0
606605.0,0.082,0.336,0.14,64.29,-30.32,0
606610.0,0.015,-0.27,0.017,-85.18,-39.88,0
606615.0,0.086,0.31,0.132,62.94,-33.14,0
606620.0,-0.074,-0.289,-0.15,-59.92,153.76,0
606625.0,0.141,0.31,0.233,48.64,-31.27,0
606630.0,0.034,-0.222,0.013,-80.77,-69.4,0
606635.0,-0.096,0.295,0.089,66.11,46.93,0
606640.0,0.067,-0.299,-0.15,-61.15,-155.86,0
606645.0,0.058,0.298,0.13,64.46,-23.93,0
606650.0,-0.05,-0.265,-0.129,-62.5,158.73,0
606655.0,0.005,0.329,0.106,72.1,-2.71,0
606660.0,0.017,-0.275,-0.03,-82.77,-150.79,0
606665.0,0.022,0.307,0.113,69.42,-10.89,0
606670.0,-0.002,-0.284,-0.066,-76.86,178.14,0
606675.0,-0.052,0.398,0.092,75.14,29.76,0
606680.0,0.027,-0.39,-0.203,-62.3,-172.53,0
606685.0,0.024,0.305,0.056,78.72,-23.44,0
606690.0,0.048,-0.236,-0.03,-76.46,-122.29,0
606695.0,-0.009,0.269,0.161,59.02,3.32,0
606700.0,0.101,-0.236,0.003,-66.89,-88.23,0
606705.0,-0.002,0.207,0.08,68.89,1.55,0
606710.0,0.113,-0.198,0.003,-60.33,-88.42,0
606715.0,0.034,0.341,0.149,65.83,-12.75,0
606720.0,-0.421,-0.356,-0.229,-36.6,118.55,0
606725.0,0.039,0.228,0.185,50.36,-11.77,0
606730.0,0.115,-0.27,-0.212,-48.16,-151.53,0
606735.0,-0.069,0.283,0.061,72.01,48.8,0
606740.0,0.122,-0.188,-0.188,-39.99,-147.0,0
606745.0,-0.05,0.173,0.128,51.63,21.41,0
606750.0,0.103,-0.133,-0.184,-32.34,-150.67,0
606755.0,-0.055,0.219,0.089,64.39,31.55,0
606760.0,-0.349,-0.272,-0.196,-34.21,119.25,0
606765.0,-0.067,0.104,0.075,45.92,41.71,0
606770.0,0.153,-0.394,-0.2,-57.38,-142.55,0
606775.0,-0.112,0.233,0.087,58.64,52.26,0
606780.0,0.127,-0.313,-0.222,-50.74,-150.2,0
606785.0,-0.057,0.266,0.041,75.15,54.1,0
606790.0,0.201,-0.363,-0.176,-53.6,-131.23,0
606795.0,-0.184,0.161,0.094,37.93,62.93,0
606800.0,-0.328,-0.263,-0.157,-35.85,115.64,0
606805.0,-0.105,0.211,0.152,48.9,34.74,0
606810.0,0.168,-0.349,-0.131,-58.61,-127.97,0
606815.0,0.149,0.101,0.056,32.53,-69.43,0
606820.0,-0.356,-0.148,-0.272,-18.23,127.37,0
606825.0,0.12,0.214,0.027,60.1,-77.29,0
606830.0,-0.474,-0.313,-0.313,-28.86,123.44,0
606835.0,0.194,0.128,0.056,32.28,-73.97,0
606840.0,-0.337,-0.208,-0.203,-27.81,121.01,0
606845.0,0.158,0.164,0.032,45.37,-78.62,0
606850.0,-0.328,-0.303,-0.232,-37.09,125.24,0
606855.0,0.173,0.056,0.089,16.01,-62.65,0
606860.0,-0.275,-0.174,-0.186,-27.66,124.07,0
606865.0,0.149,0.281,0.123,55.52,-50.44,0
606870.0,-0.318,-0.239,-0.203,-32.32,122.51,0
606875.0,0.242,0.123,0.106,24.93,-66.34,0
606880.0,-0.282,-0.258,-0.2,-36.68,125.37,0
606885.0,0.194,0.183,0.128,38.18,-56.69,0
606890.0,-0.345,-0.284,-0.227,-34.57,123.35,0
606895.0,0.211,0.156,0.101,33.75,-64.35,0
606900.0,-0.234,-0.267,-0.217,-39.93,132.81,0
606905.0,0.079,0.197,0.051,64.44,-57.24,0
606910.0,-0.301,-0.196,-0.263,-26.07,131.07,0
606915.0,0.13,0.195,0.053,54.26,-67.6,0
606920.0,-0.311,-0.212,-0.22,-29.15,125.22,0
606925.0,0.118,0.154,0.075,47.84,-57.48,0
606930.0,-0.349,-0.255,-0.251,-30.72,125.66,0
606935.0,0.103,0.099,0.051,40.66,-63.7,0
606940.0,-0.194,-0.196,-0.203,-34.9,136.31,0
606945.0,0.053,0.221,0.063,69.59,-40.04,0
606950.0,-0.256,-0.153,-0.193,-25.43,127.05,0
606955.0,0.199,0.135,0.142,28.88,-54.49,0
606960.0,-0.198,-0.227,-0.136,-43.32,124.37,0
606965.0,0.098,0.166,0.106,48.91,-42.85,0
606970.0,-0.227,-0.188,-0.205,-31.61,132.08,0
606975.0,0.122,0.132,0.092,40.89,-53.15,0
606980.0,-0.194,-0.241,-0.196,-41.21,135.28,0
606985.0,0.127,0.233,0.137,51.24,-42.82,0
606990.0,-0.256,-0.212,-0.184,-33.99,125.66,0
606995.0,0.12,0.154,0.12,42.17,-44.89,0
607000.0,-0.179,-0.21,-0.227,-35.99,141.66,0
607005.0,0.115,0.223,0.111,54.41,-46.09,0
607010.0,-0.22,-0.208,-0.109,-40.19,116.44,0
607015.0,0.182,0.211,0.195,38.41,-43.11,0
607020.0,-0.222,-0.32,-0.143,-50.45,122.73,0
607025.0,0.151,0.228,0.104,51.23,-55.54,0
607030.0,-0.254,-0.241,-0.258,-33.69,135.48,0
607035.0,0.041,0.209,0.044,73.99,-43.06,0
607040.0,-0.134,-0.236,-0.167,-47.85,141.27,0
607045.0,0.132,0.175,0.118,44.75,-48.18,0
607050.0,-0.182,-0.2,-0.141,-41.1,127.72,0
607055.0,0.084,0.197,0.156,47.99,-28.26,0
607060.0,-0.119,-0.205,-0.174,-44.18,145.54,0
607065.0,0.139,0.202,0.087,50.9,-58.0,0
607070.0,-0.122,-0.229,-0.021,-61.65,99.7,0
607075.0,0.115,0.259,0.228,45.41,-26.78,0
607080.0,-0.1,-0.27,-0.164,-54.47,148.62,0
607085.0,0.115,0.252,0.022,65.05,-79.06,0
607090.0,-0.151,-0.265,-0.074,-57.7,116.02,0
607095.0,0.139,0.219,0.187,43.12,-36.58,0
607100.0,-0.201,-0.232,-0.136,-43.68,124.05,0
607105.0,0.218,0.322,0.128,51.84,-59.67,0
607110.0,-0.225,-0.308,-0.112,-50.82,116.44,0
607115.0,0.074,0.243,0.12,59.72,-31.73,0
607120.0,-0.043,-0.32,-0.107,-70.19,158.18,0
607125.0,0.019,0.329,0.149,65.41,-7.41,0
607130.0,0.029,-0.279,-0.107,-68.36,-164.85,0
607135.0,0.015,0.29,0.125,66.54,-6.65,0
607140.0,0.003,-0.311,-0.081,-75.43,-178.13,0
607145.0,0.141,0.243,0.173,47.33,-39.26,0
607150.0,-0.084,-0.232,-0.002,-70.15,91.15,0
607155.0,0.019,0.367,0.168,65.22,-6.57,0
607160.0,-0.012,-0.354,-0.083,-76.65,171.96,0
607165.0,0.113,0.314,0.039,69.21,-70.91,0
607170.0,-0.172,-0.277,-0.188,-47.34,137.59,0
607175.0,0.106,0.307,0.207,52.93,-27.07,0
607180.0,-0.165,-0.334,-0.028,-63.42,99.64,0
607185.0,0.084,0.31,0.063,71.26,-53.16,0
607190.0,-0.002,-0.318,-0.107,-71.38,178.85,0
607195.0,-0.014,0.436,0.128,73.61,6.32,0
607200.0,0.089,-0.255,0.025,-70.16,-74.48,0
607205.0,0.17,0.264,0.25,41.15,-34.28,0
607210.0,0.024,-0.351,0.092,-74.89,-14.77,0
607215.0,0.029,0.357,0.13,69.56,-12.56,0
607220.0,0.0,-0.236,-0.097,-67.59,-179.86,0
607225.0,0.091,0.334,0.099,68.03,-42.69,0
607230.0,0.019,-0.289,-0.004,-86.08,-101.85,0
607235.0,0.051,0.29,0.19,55.92,-14.9,0
607240.0,0.086,-0.287,-0.172,-56.15,-153.28,0
607245.0,0.096,0.353,0.159,62.25,-31.17,0
607250.0,-0.026,-0.246,-0.042,-78.56,148.38,0
607255.0,0.055,0.281,0.106,66.93,-27.54,0
607260.0,0.127,-0.236,0.058,-59.39,-65.41,0
607265.0,-0.007,0.29,0.211,53.93,1.88,0
607270.0,0.07,-0.222,-0.062,-67.28,-131.45,0
607275.0,-0.038,0.331,0.034,81.21,48.03,0
607280.0,0.041,-0.382,-0.215,-60.24,-169.21,0
607285.0,-0.002,0.29,0.068,76.86,1.82,0
607290.0,0.022,-0.251,-0.033,-81.07,-146.41,0
607295.0,-0.043,0.271,0.132,62.84,17.94,0
607300.0,0.039,-0.212,-0.026,-77.71,-123.61,0
607305.0,-0.014,0.274,0.063,76.73,12.64,0
607310.0,0.12,-0.227,-0.023,-61.68,-100.96,0
607315.0,0.022,0.207,0.166,51.0,-7.48,0
607320.0,-0.373,-0.318,-0.229,-35.96,121.54,0
607325.0,0.017,0.257,0.123,64.24,-7.88,0
607330.0,0.153,-0.141,0.022,-42.19,-81.75,0
607335.0,-0.026,0.195,0.096,62.82,15.13,0
607340.0,0.113,-0.174,-0.265,-31.14,-156.95,0
607345.0,-0.072,0.173,0.135,48.6,27.97,0
607350.0,0.132,-0.119,-0.164,-29.44,-141.27,0
607355.0,-0.124,0.216,0.106,52.92,49.52,0
607360.0,-0.419,-0.306,-0.255,-31.94,121.39,0
607365.0,-0.033,0.152,0.027,74.2,50.89,0
607370.0,0.259,-0.131,-0.327,-17.43,-141.66,0
607375.0,-0.076,0.233,0.063,66.98,50.5,0
607380.0,0.18,-0.303,-0.184,-49.73,-135.6,0
607385.0,0.007,0.219,0.087,68.25,-4.88,0
607390.0,0.118,-0.265,-0.275,-41.58,-156.83,0
607395.0,-0.091,0.199,0.099,56.06,42.54,0
607400.0,-0.313,-0.248,-0.181,-34.44,120.04,0
607405.0,-0.119,0.175,0.065,52.19,61.32,0
607410.0,0.161,-0.287,-0.133,-53.93,-129.7,0
607415.0,-0.098,0.207,0.101,55.71,44.04,0
607420.0,0.211,-0.282,-0.265,-39.76,-141.49,0
607425.0,0.149,0.221,0.027,55.63,-79.69,0
607430.0,-0.383,-0.26,-0.227,-30.32,120.64,0
607435.0,0.204,0.104,0.065,25.85,-72.21,0
607440.0,-0.304,-0.27,-0.176,-37.52,120.15,0
607445.0,0.165,0.271,0.116,53.35,-55.05,0
607450.0,-0.28,-0.253,-0.184,-37.09,123.27,0
607455.0,0.237,0.19,0.08,37.18,-71.43,0
607460.0,-0.261,-0.33,-0.138,-48.17,117.92,0
607465.0,0.259,0.168,0.19,27.67,-53.74,0
607470.0,-0.395,-0.284,-0.205,-32.57,117.46,0
607475.0,0.221,0.132,0.037,30.64,-80.57,0
607480.0,-0.261,-0.208,-0.205,-32.03,128.2,0
607485.0,0.156,0.152,0.154,34.68,-45.35,0
607490.0,-0.227,-0.294,-0.121,-48.75,118.11,0
607495.0,0.137,0.116,0.125,31.95,-47.51,0
607500.0,-0.189,-0.136,-0.136,-30.27,125.7,0
607505.0,0.185,0.111,0.106,27.51,-60.12,0
607510.0,-0.337,-0.181,-0.234,-23.82,124.74,0
607515.0,0.213,0.061,0.152,13.03,-54.61,0
607520.0,-0.201,-0.162,-0.181,-30.93,132.06,0
607525.0,0.165,0.221,0.19,41.27,-41.07,0
607530.0,-0.292,-0.306,-0.196,-41.03,123.83,0
607535.0,0.161,0.195,0.092,46.46,-60.28,0
607540.0,-0.237,-0.279,-0.239,-39.73,135.23,0
607545.0,0.098,0.228,0.077,61.25,-51.84,0
607550.0,-0.297,-0.215,-0.169,-32.16,119.71,0
607555.0,0.122,0.094,0.085,32.32,-55.36,0
607560.0,-0.131,-0.212,-0.2,-41.54,146.74,0
607565.0,0.156,0.166,0.161,36.51,-44.05,0
607570.0,-0.268,-0.224,-0.157,-35.83,120.42,0
607575.0,0.177,0.183,0.065,44.02,-69.78,0
607580.0,-0.239,-0.212,-0.258,-31.12,137.15,0
607585.0,0.122,0.247,0.082,59.21,-56.13,0
607590.0,-0.27,-0.308,-0.2,-42.48,126.55,0
607595.0,0.055,0.118,0.113,43.12,-26.03,0
607600.0,-0.17,-0.141,-0.234,-25.93,144.03,0
607605.0,0.118,0.231,0.089,57.37,-52.78,0
607610.0,-0.21,-0.167,-0.167,-31.85,128.41,0
607615.0,0.137,0.197,0.147,44.49,-42.97,0
607620.0,-0.076,-0.279,-0.107,-64.8,144.49,0
607625.0,0.156,0.178,0.12,42.09,-52.31,0
607630.0,-0.189,-0.153,-0.193,-29.44,135.65,0
607635.0,0.146,0.187,0.13,43.77,-48.37,0
607640.0,-0.091,-0.332,-0.191,-57.53,154.57,0
607645.0,0.079,0.283,0.152,58.88,-27.61,0
607650.0,-0.218,-0.279,-0.186,-44.3,130.52,0
607655.0,0.084,0.183,0.092,55.75,-42.5,0
607660.0,-0.158,-0.246,-0.179,-45.87,138.58,0
607665.0,0.125,0.3,0.113,60.68,-47.76,0
607670.0,-0.215,-0.248,-0.136,-44.29,122.24,0
607675.0,0.156,0.199,0.185,39.5,-40.1,0
607680.0,-0.098,-0.289,-0.126,-61.07,142.19,0
607685.0,0.115,0.345,0.142,62.11,-39.05,0
607690.0,-0.079,-0.303,-0.119,-64.81,146.5,0
607695.0,0.084,0.223,0.187,47.4,-24.15,0
607700.0,-0.139,-0.287,-0.126,-56.81,132.31,0
607705.0,0.103,0.252,0.147,54.56,-35.11,0
607710.0,-0.146,-0.138,-0.164,-32.15,138.44,0
607715.0,0.046,0.243,0.07,70.95,-33.1,0
607720.0,-0.136,-0.279,-0.208,-48.37,146.72,0
607725.0,0.06,0.247,0.14,58.43,-23.29,0
607730.0,-0.06,-0.322,-0.181,-59.39,161.79,0
607735.0,0.007,0.324,0.096,73.37,-4.4,0
607740.0,-0.072,-0.311,-0.069,-72.28,133.83,0
607745.0,0.108,0.305,0.092,65.07,-49.66,0
607750.0,-0.086,-0.315,-0.129,-63.87,146.24,0
607755.0,0.024,0.338,0.132,68.31,-10.35,0
607760.0,-0.064,-0.32,-0.071,-73.32,137.83,0
607765.0,0.046,0.298,0.07,74.28,-33.1,0
607770.0,-0.057,-0.277,-0.141,-61.29,157.85,0
607775.0,0.029,0.35,0.12,70.53,-13.53,0
607780.0,0.017,-0.239,-0.014,-84.78,-128.76,0
607785.0,0.108,0.331,0.185,57.09,-30.26,0
607790.0,-0.021,-0.315,-0.035,-82.57,148.81,0
607795.0,-0.012,0.338,0.092,74.72,7.29,0
607800.0,0.029,-0.282,-0.083,-72.66,-160.78,0
607805.0,0.058,0.31,0.161,61.06,-19.7,0
607810.0,0.043,-0.265,0.135,-61.89,-17.82,0
607815.0,-0.012,0.293,0.132,65.59,5.06,0
607820.0,0.0,-0.21,-0.136,-57.12,-179.9,0
607825.0,0.01,0.298,0.015,86.54,-33.06,0
607830.0,0.007,-0.284,-0.093,-71.89,-175.42,0
607835.0,-0.036,0.302,0.113,68.56,17.49,0
607840.0,0.017,-0.241,-0.114,-64.41,-171.53,0
607845.0,0.036,0.302,0.164,61.02,-12.47,0
607850.0,0.0,-0.234,-0.062,-75.26,-179.78,0
607855.0,-0.067,0.336,0.049,76.18,53.96,0
607860.0,0.072,-0.26,-0.028,-73.45,-111.24,0
607865.0,0.053,0.235,0.166,53.5,-17.69,0
607870.0,0.034,-0.253,0.037,-78.86,-42.66,0
607875.0,-0.064,0.293,0.068,72.29,43.55,0
607880.0,0.029,-0.385,-0.22,-60.08,-172.48,0
607885.0,-0.045,0.324,0.02,81.33,66.29,0
607890.0,0.11,-0.179,-0.006,-58.28,-93.35,0
607895.0,-0.048,0.243,0.178,52.79,14.99,0
607900.0,0.137,-0.267,0.01,-62.86,-85.69,0
607905.0,0.048,0.202,0.092,62.84,-27.69,0
607910.0,0.146,-0.124,0.132,-32.1,-47.85,0
607915.0,-0.069,0.264,0.195,51.97,19.57,0
607920.0,0.165,-0.255,-0.224,-42.5,-143.59,0
607925.0,-0.043,0.046,0.128,18.95,18.56,0
607930.0,0.194,-0.143,0.077,-34.37,-68.28,0
607935.0,-0.105,0.187,0.049,58.3,65.18,0
607940.0,0.17,-0.179,-0.272,-29.12,-147.98,0
607945.0,-0.06,0.14,0.02,65.76,71.57,0
607950.0,0.141,-0.023,-0.162,-6.16,-138.88,0
607955.0,-0.069,0.161,0.185,39.2,20.5,0
607960.0,-0.366,-0.279,-0.212,-33.43,120.12,0
607965.0,-0.103,0.008,0.125,2.79,39.36,0
607970.0,0.094,-0.112,-0.229,-24.31,-157.78,0
607975.0,-0.069,0.233,0.063,68.12,47.7,0
607980.0,0.182,-0.272,-0.248,-41.48,-143.73,0
607985.0,-0.091,0.211,0.053,63.53,59.53,0
607990.0,0.271,-0.263,-0.251,-35.44,-132.79,0
607995.0,-0.117,0.132,0.104,40.25,48.48,0
608000.0,-0.292,-0.191,-0.22,-27.59,126.95,0
608005.0,-0.093,0.135,0.046,52.36,63.61,0
608010.0,0.23,-0.255,-0.191,-40.52,-129.67,0
608015.0,-0.153,0.159,0.082,42.43,61.77,0
608020.0,0.235,-0.188,-0.212,-30.76,-132.12,0
608025.0,0.189,0.211,0.068,46.43,-70.31,0
608030.0,-0.33,-0.296,-0.191,-37.83,120.03,0
608035.0,0.204,0.118,0.104,27.31,-63.03,0
608040.0,-0.261,-0.16,-0.164,-27.39,122.25,0
608045.0,0.209,0.216,0.087,43.74,-67.38,0
608050.0,-0.323,-0.267,-0.188,-35.57,120.26,0
608055.0,0.173,0.096,0.013,29.14,-85.8,0
608060.0,-0.268,-0.176,-0.224,-26.79,129.94,0
608065.0,0.168,0.171,0.099,41.23,-59.5,0
608070.0,-0.33,-0.255,-0.198,-33.57,120.95,0
608075.0,0.209,0.125,0.075,29.47,-70.23,0
608080.0,-0.268,-0.22,-0.174,-34.5,123.01,0
608085.0,0.137,0.243,0.108,54.26,-51.57,0
608090.0,-0.337,-0.294,-0.222,-36.04,123.34,0
608095.0,0.132,0.111,0.075,36.15,-60.4,0
608100.0,-0.273,-0.198,-0.248,-28.23,132.32,0
608105.0,0.115,0.25,0.085,60.23,-53.73,0
608110.0,-0.256,-0.248,-0.167,-39.1,123.1,0
608115.0,0.192,0.144,0.147,30.87,-52.57,0
608120.0,-0.191,-0.263,-0.188,-44.37,134.57,0
608125.0,0.189,0.202,0.128,41.47,-56.03,0
608130.0,-0.251,-0.205,-0.097,-37.29,111.21,0
608135.0,0.149,0.125,0.132,32.17,-48.32,0
608140.0,-0.196,-0.2,-0.234,-33.29,140.03,0
608145.0,0.098,0.187,0.085,55.32,-49.34,0
608150.0,-0.23,-0.208,-0.176,-35.63,127.54,0
608155.0,0.096,0.166,0.053,56.49,-60.92,0
608160.0,-0.191,-0.217,-0.169,-40.37,131.5,0
608165.0,0.115,0.171,-0.028,55.23,-103.67,0
608170.0,-0.313,-0.205,-0.236,-27.6,127.02,0
608175.0,0.11,0.14,0.08,45.71,-54.16,0
608180.0,-0.131,-0.179,-0.172,-39.6,142.56,0
608185.0,0.079,0.161,0.113,49.38,-34.98,0
608190.0,-0.189,-0.176,-0.174,-34.49,132.66,0
608195.0,0.139,0.178,0.192,36.86,-35.89,0
608200.0,-0.175,-0.227,-0.129,-46.29,126.38,0
608205.0,0.175,0.245,0.099,50.62,-60.53,0
608210.0,-0.206,-0.279,-0.153,-47.5,126.56,0
608215.0,0.137,0.187,0.135,44.32,-45.4,0
608220.0,-0.139,-0.265,-0.148,-52.61,136.82,0
608225.0,0.084,0.235,0.08,63.79,-46.51,0
608230.0,-0.182,-0.16,-0.179,-32.06,134.54,0
608235.0,0.055,0.223,0.053,71.01,-46.01,0
608240.0,-0.091,-0.229,-0.126,-55.85,144.28,0
608245.0,0.161,0.18,0.14,40.27,-49.01,0
608250.0,-0.115,-0.282,-0.03,-67.17,104.85,0
608255.0,0.11,0.255,0.142,54.76,-37.86,0
608260.0,-0.074,-0.284,-0.117,-64.08,147.61,0
608265.0,0.187,0.264,0.159,47.11,-49.67,0
608270.0,-0.146,-0.236,-0.071,-55.53,116.0,0
608275.0,0.127,0.293,0.161,54.97,-38.27,0
608280.0,-0.036,-0.301,-0.093,-71.74,158.94,0
608285.0,0.13,0.278,0.137,55.88,-43.35,0
608290.0,-0.105,-0.246,-0.088,-60.88,129.9,0
608295.0,0.058,0.252,0.159,56.18,-19.98,0
608300.0,-0.079,-0.239,-0.167,-52.29,154.73,0
608305.0,0.084,0.302,0.058,71.32,-55.3,0
608310.0,-0.134,-0.299,-0.2,-51.09,146.26,0
608315.0,0.051,0.369,0.108,72.05,-24.98,0
608320.0,-0.064,-0.394,-0.064,-77.04,134.79,0
608325.0,0.17,0.331,0.19,52.4,-41.88,0
608330.0,-0.124,-0.342,-0.114,-63.71,132.59,0
608335.0,0.036,0.372,0.13,70.05,-15.54,0
608340.0,0.022,-0.265,-0.062,-76.16,-160.5,0
608345.0,0.053,0.408,0.144,69.34,-20.13,0
608350.0,-0.096,-0.287,-0.059,-68.59,121.76,0
608355.0,0.106,0.312,0.173,56.98,-31.38,0
608360.0,-0.079,-0.375,-0.155,-65.15,153.05,0
608365.0,-0.005,0.274,0.013,87.18,19.72,0
608370.0,-0.031,-0.208,-0.071,-69.52,156.52,0
608375.0,-0.086,0.374,0.075,73.05,48.92,0
608380.0,-0.017,-0.296,-0.133,-65.59,172.94,0
608385.0,0.053,0.238,0.156,55.23,-18.7,0
608390.0,-0.024,-0.308,-0.042,-81.04,150.78,0
608395.0,-0.028,0.343,0.032,82.9,41.82,0
608400.0,-0.002,-0.215,-0.018,-85.06,173.33,0
608405.0,0.079,0.278,0.214,50.69,-20.34,0
608410.0,0.098,-0.301,0.025,-71.37,-75.93,0
608415.0,-0.055,0.314,0.111,68.53,26.32,0
608420.0,0.106,-0.181,-0.045,-57.68,-112.98,0
608425.0,0.051,0.235,0.116,61.8,-23.6,0
608430.0,0.103,-0.339,0.058,-70.75,-60.59,0
608435.0,-0.036,0.348,0.175,62.76,11.49,0
608440.0,0.048,-0.176,-0.255,-34.17,-169.33,0
608445.0,0.039,0.255,0.039,77.84,-44.65,0
608450.0,0.07,-0.267,0.01,-75.25,-81.59,0
608455.0,-0.024,0.298,0.149,63.09,9.03,0
608460.0,0.122,-0.22,-0.035,-59.89,-106.05,0
608465.0,0.022,0.24,0.087,69.54,-14.07,0
608470.0,0.151,-0.275,0.089,-57.42,-59.41,0
608475.0,-0.048,0.233,0.204,48.01,13.13,0
608480.0,0.151,-0.306,-0.267,-44.87,-150.54,0
608485.0,0.024,0.171,0.065,67.79,-20.3,0
608490.0,0.165,-0.126,0.094,-33.54,-60.37,0
608495.0,-0.062,0.243,0.085,66.63,36.27,0
608500.0,0.137,-0.081,0.092,-26.11,-56.15,0
608505.0,-0.019,0.106,0.087,50.02,12.28,0
608510.0,0.141,-0.2,0.056,-52.8,-68.48,0
608515.0,-0.119,0.164,0.073,49.48,58.73,0
608520.0,-0.335,-0.291,-0.138,-38.81,112.41,0
608525.0,-0.079,0.137,0.061,54.08,52.44,0
608530.0,0.17,-0.069,-0.203,-14.55,-139.99,0
608535.0,-0.146,0.111,0.14,28.77,46.25,0
608540.0,0.187,-0.097,-0.162,-21.49,-130.92,0
608545.0,-0.084,0.154,0.053,57.21,57.42,0
608550.0,0.168,-0.136,-0.236,-25.1,-144.62,0
608555.0,-0.069,0.142,0.087,51.96,38.52,0
608560.0,-0.321,-0.279,-0.339,-30.9,136.62,0
608565.0,-0.072,0.053,0.015,36.12,78.1,0
608570.0,0.304,-0.114,-0.246,-16.27,-128.94,0
608575.0,-0.141,0.111,0.049,36.62,70.98,0
608580.0,0.254,-0.205,-0.212,-31.79,-129.9,0
608585.0,-0.131,0.144,0.037,46.62,74.43,0
608590.0,0.24,-0.287,-0.191,-43.09,-128.53,0
608595.0,-0.182,0.18,0.096,41.23,62.03,0
608600.0,-0.239,-0.21,-0.141,-37.12,120.44,0
608605.0,-0.17,0.149,0.173,31.6,44.44,0
608610.0,0.182,-0.27,-0.131,-50.25,-125.71,0
608615.0,0.201,0.123,0.106,28.36,-62.22,0
608620.0,-0.263,-0.205,-0.198,-31.93,126.96,0
608625.0,0.213,0.264,0.185,43.08,-49.06,0
608630.0,-0.294,-0.294,-0.138,-42.1,115.15,0
608635.0,0.185,0.104,0.077,27.38,-67.27,0
608640.0,-0.273,-0.174,-0.205,-27.02,126.96,0
608645.0,0.06,0.192,-0.05,67.94,-129.51,0
608650.0,-0.376,-0.212,-0.351,-22.44,133.08,0
608655.0,0.163,0.128,0.087,34.63,-61.94,0
608660.0,-0.33,-0.198,-0.241,-25.84,126.14,0
608665.0,0.194,0.195,0.044,44.36,-77.28,0
608670.0,-0.275,-0.282,-0.179,-40.66,123.03,0
608675.0,0.185,0.135,0.171,28.2,-47.24,0
608680.0,-0.22,-0.306,-0.162,-48.21,126.38,0
608685.0,0.108,0.25,0.006,66.59,-87.08,0
608690.0,-0.275,-0.143,-0.198,-22.87,125.74,0
608695.0,0.11,0.094,0.123,29.68,-41.94,0
608700.0,-0.254,-0.193,-0.2,-30.87,128.32,0
608705.0,0.122,0.14,0.029,47.96,-76.47,0
608710.0,-0.268,-0.121,-0.253,-18.23,133.37,0
608715.0,0.146,0.096,0.099,28.65,-55.94,0
608720.0,-0.21,-0.232,-0.138,-42.6,123.28,0
608725.0,0.165,0.216,0.12,46.57,-53.95,0
608730.0,-0.23,-0.181,-0.236,-28.81,135.82,0
608735.0,0.149,0.173,0.082,45.54,-61.09,0
608740.0,-0.201,-0.287,-0.141,-49.46,124.98,0
608745.0,0.13,0.207,0.101,51.49,-51.98,0
608750.0,-0.234,-0.21,-0.253,-31.33,137.19,0
608755.0,0.101,0.183,0.087,53.92,-49.23,0
608760.0,-0.119,-0.275,-0.074,-62.94,121.6,0
608765.0,0.098,0.152,0.082,49.78,-50.15,0
608770.0,-0.175,-0.191,-0.188,-36.61,137.19,0
608775.0,0.139,0.24,0.159,48.69,-41.23,0
608780.0,-0.096,-0.26,-0.018,-69.5,100.92,0
608785.0,0.192,0.209,0.214,36.04,-41.89,0
608790.0,-0.22,-0.322,-0.112,-52.57,116.94,0
608795.0,0.108,0.252,0.056,64.26,-62.68,0
608800.0,-0.165,-0.26,-0.203,-44.87,140.87,0
608805.0,0.086,0.264,0.13,59.41,-33.62,0
608810.0,-0.254,-0.248,-0.179,-38.67,125.2,0
608815.0,0.082,0.259,0.108,62.37,-36.97,0
608820.0,-0.158,-0.301,-0.157,-53.49,134.91,0
608825.0,0.084,0.269,0.106,63.28,-38.39,0
608830.0,-0.182,-0.263,-0.145,-48.46,128.65,0
608835.0,0.089,0.159,0.108,48.55,-39.32,0
608840.0,-0.084,-0.234,-0.117,-58.48,144.37,0
608845.0,0.118,0.283,0.175,53.29,-33.82,0
608850.0,-0.115,-0.241,-0.093,-58.55,128.94,0
608855.0,0.103,0.142,0.118,42.16,-41.16,0
608860.0,-0.045,-0.282,-0.105,-67.98,156.61,0
608865.0,0.094,0.353,0.195,58.51,-25.68,0
608870.0,-0.103,-0.258,-0.112,-59.51,137.43,0
608875.0,0.11,0.271,0.116,59.49,-43.67,0
608880.0,-0.014,-0.392,-0.054,-81.85,165.43,0
608885.0,0.098,0.322,0.096,66.8,-45.56,0
608890.0,-0.086,-0.205,-0.126,-53.35,145.74,0
608895.0,0.084,0.341,0.156,62.48,-28.26,0
608900.0,-0.048,-0.279,-0.054,-75.5,138.76,0
608905.0,0.094,0.216,0.144,51.48,-32.96,0
608910.0,-0.105,-0.253,-0.157,-53.22,146.25,0
608915.0,0.067,0.444,0.092,75.62,-36.27,0
608920.0,-0.019,-0.349,-0.057,-80.27,161.57,0
608925.0,0.091,0.295,0.204,52.85,-24.07,0
608930.0,-0.055,-0.346,-0.042,-78.69,127.7,0
608935.0,-0.024,0.415,0.063,80.79,20.63,0
608940.0,-0.062,-0.282,-0.129,-63.14,154.25,0
608945.0,0.031,0.219,0.075,69.61,-22.71,0
608950.0,-0.024,-0.299,-0.035,-81.91,146.04,0
608955.0,-0.04,0.348,0.113,70.93,19.66,0
608960.0,-0.028,-0.243,-0.04,-78.6,144.53,0
608965.0,0.043,0.345,0.053,78.74,-39.06,0
608970.0,-0.009,-0.327,-0.04,-82.85,166.86,0
608975.0,-0.002,0.345,0.142,67.66,0.87,0
608980.0,0.036,-0.306,-0.071,-75.38,-153.05,0
608985.0,0.055,0.322,0.13,66.28,-23.05,0
608990.0,0.027,-0.253,0.013,-83.36,-64.48,0
608995.0,-0.079,0.317,0.044,74.12,60.92,0
609000.0,0.031,-0.239,-0.117,-63.17,-164.94,0
609005.0,-0.005,0.3,0.07,76.81,3.71,0
609010.0,0.027,-0.294,-0.002,-84.82,-93.61,0
609015.0,0.019,0.391,0.161,67.46,-6.86,0
609020.0,0.089,-0.241,0.051,-66.98,-60.14,0
609025.0,0.067,0.255,0.24,45.58,-15.65,0
609030.0,0.07,-0.294,0.049,-73.87,-55.1,0
609035.0,-0.026,0.293,0.022,83.32,49.53,0
609040.0,0.084,-0.138,-0.102,-46.23,-140.58,0
609045.0,0.046,0.209,0.07,68.17,-33.1,0
609050.0,0.091,-0.164,0.013,-60.75,-82.08,0
609055.0,-0.107,0.219,0.092,57.12,49.54,0
609060.0,0.144,-0.085,0.044,-29.61,-73.06,0
609065.0,-0.033,0.087,0.14,31.2,13.41,0
609070.0,0.084,-0.203,0.037,-65.67,-66.45,0
609075.0,-0.096,0.202,0.08,58.35,50.15,0
609080.0,0.122,-0.279,-0.186,-51.45,-146.67,0
609085.0,-0.045,0.187,0.013,75.93,74.34,0
609090.0,0.067,-0.157,-0.038,-63.9,-119.19,0
609095.0,-0.163,0.211,0.034,51.84,78.11,0
609100.0,0.187,-0.076,0.008,-22.07,-87.58,0
609105.0,-0.117,0.094,0.061,35.52,62.64,0
609110.0,0.161,-0.105,0.053,-31.72,-71.62,0
609115.0,-0.184,0.12,0.049,32.31,75.21,0
609120.0,-0.366,-0.246,-0.22,-29.94,120.95,0
609125.0,-0.127,0.12,0.089,37.85,54.81,0
609130.0,0.165,0.013,-0.267,2.31,-148.26,0
609135.0,-0.057,0.082,0.065,43.39,41.2,0
609140.0,0.161,-0.04,-0.205,-8.72,-141.94,0
609145.0,-0.048,0.085,-0.011,59.92,103.29,0
609150.0,0.225,0.053,-0.26,8.82,-139.12,0
609155.0,-0.117,0.07,0.092,25.25,51.93,0
609160.0,-0.34,-0.251,-0.167,-33.52,116.16,0
609165.0,-0.124,-0.028,0.075,-10.93,58.91,0
609170.0,0.175,0.058,-0.172,13.35,-134.45,0
609175.0,-0.203,0.154,0.154,31.12,52.86,0
609180.0,0.266,-0.251,-0.258,-34.08,-134.11,0
609185.0,-0.155,0.14,0.089,37.91,60.11,0
609190.0,0.273,-0.203,-0.22,-30.05,-128.79,0
609195.0,-0.107,0.135,-0.03,50.35,105.79,0
609200.0,-0.261,-0.203,-0.232,-30.18,131.6,0
609205.0,-0.115,0.132,0.065,45.09,60.32,0
609210.0,0.321,-0.236,-0.267,-29.49,-129.79,0
609215.0,-0.22,0.149,-0.026,33.95,96.64,0
609220.0,-0.27,-0.176,-0.267,-24.89,134.69,0
609225.0,0.074,0.142,0.053,57.16,-54.36,0
609230.0,-0.392,-0.179,-0.303,-19.83,127.71,0
609235.0,0.175,0.137,0.053,36.86,-73.04,0
609240.0,-0.27,-0.222,-0.251,-31.05,132.84,0
609245.0,0.165,0.192,0.068,47.08,-67.73,0
609250.0,-0.22,-0.287,-0.131,-48.22,120.76,0
609255.0,0.12,0.087,0.094,29.69,-51.89,0
609260.0,-0.242,-0.208,-0.263,-30.19,137.39,0
609265.0,0.12,0.195,0.07,54.48,-59.68,0
609270.0,-0.306,-0.215,-0.181,-31.11,120.62,0
609275.0,0.201,0.101,0.104,24.09,-62.76,0
609280.0,-0.177,-0.172,-0.093,-40.68,117.64,0
609285.0,0.139,0.195,0.175,41.0,-38.4,0
609290.0,-0.21,-0.2,-0.15,-37.78,125.5,0
609295.0,0.163,0.132,0.099,34.77,-58.76,0
609300.0,-0.155,-0.236,-0.184,-44.49,139.76,0
609305.0,0.082,0.152,0.092,50.99,-41.68,0
609310.0,-0.309,-0.107,-0.263,-14.79,130.4,0
609315.0,0.096,0.14,0.068,49.91,-54.79,0
609320.0,-0.22,-0.279,-0.184,-44.27,129.85,0
609325.0,0.158,0.209,0.13,45.58,-50.6,0
609330.0,-0.268,-0.21,-0.186,-32.77,124.78,0
609335.0,0.127,0.178,0.175,39.38,-35.92,0
609340.0,-0.16,-0.215,-0.15,-44.37,133.14,0
609345.0,0.141,0.221,0.113,50.64,-51.33,0
609350.0,-0.191,-0.203,-0.191,-36.89,134.93,0
609355.0,0.156,0.096,0.14,24.76,-48.15,0
609360.0,-0.163,-0.232,-0.157,-45.66,134.06,0
609365.0,0.134,0.255,0.185,48.06,-35.97,0
609370.0,-0.148,-0.217,-0.15,-45.83,135.37,0
609375.0,0.151,0.195,0.175,40.05,-40.72,0
609380.0,-0.117,-0.318,-0.1,-64.16,130.46,0
609385.0,0.163,0.293,0.149,52.96,-47.55,0
609390.0,-0.143,-0.215,-0.131,-47.88,132.4,0
609395.0,0.156,0.255,0.135,51.0,-49.15,0
609400.0,-0.074,-0.354,-0.117,-68.67,147.61,0
609405.0,0.108,0.276,0.168,54.08,-32.68,0
609410.0,-0.124,-0.253,-0.1,-57.79,128.78,0
609415.0,0.12,0.25,0.108,57.07,-47.88,0
609420.0,-0.119,-0.32,-0.124,-61.75,136.02,0
609425.0,0.125,0.295,0.137,57.87,-42.28,0
609430.0,-0.184,-0.253,-0.129,-48.42,124.93,0
609435.0,0.139,0.286,0.185,50.97,-36.93,0
609440.0,-0.141,-0.275,-0.131,-54.98,132.88,0
609445.0,0.094,0.183,0.089,54.69,-46.35,0
609450.0,-0.1,-0.222,-0.167,-48.74,148.99,0
609455.0,0.074,0.298,0.099,67.42,-36.98,0
609460.0,-0.093,-0.366,-0.129,-66.53,144.08,0
609465.0,0.118,0.307,0.116,61.77,-45.47,0
609470.0,-0.122,-0.334,-0.109,-63.91,131.92,0
609475.0,0.053,0.384,0.164,65.88,-17.93,0
609480.0,-0.06,-0.315,-0.117,-67.45,152.92,0
609485.0,0.17,0.286,0.144,51.99,-49.7,0
609490.0,-0.026,-0.306,-0.071,-76.09,159.85,0
609495.0,0.027,0.312,0.149,64.1,-10.1,0
609500.0,-0.017,-0.234,-0.1,-66.61,170.6,0
609505.0,0.074,0.231,0.128,57.35,-30.26,0
609510.0,-0.038,-0.279,-0.076,-73.1,153.36,0
609515.0,0.079,0.295,0.149,60.22,-27.98,0
609520.0,-0.048,-0.272,0.01,-79.85,77.81,0
609525.0,0.144,0.319,0.161,55.91,-41.77,0
