time_ms,accel_x,accel_y,accel_z,pitch,roll,sync
198997.0,0.012,0.021,0.017,45.37,-36.82,0
199002.0,0.034,-0.025,0.014,-33.78,-67.39,0
199007.0,0.029,0.026,0.04,27.27,-35.75,0
199012.0,-0.004,-0.013,-0.0,-70.78,93.11,0
199017.0,-0.004,0.009,0.009,40.9,25.18,0
199022.0,0.005,0.002,-0.007,10.97,-145.04,0
199027.0,-0.007,-0.013,0.007,-52.41,44.33,0
199032.0,-0.021,-0.017,-0.015,-34.1,124.63,0
199037.0,0.003,0.011,0.012,43.22,-13.39,0
199042.0,-0.007,0.016,0.017,42.07,22.32,0
199047.0,-0.002,0.033,0.021,56.94,5.35,0
199052.0,-0.047,0.009,0.017,10.08,70.82,0
199057.0,0.024,0.004,-0.005,9.48,-101.67,0
199062.0,-0.038,0.019,-0.01,25.31,104.52,0
199067.0,-0.007,-0.015,-0.003,-64.13,111.21,0
199072.0,0.01,0.016,0.031,26.41,-17.9,0
199077.0,-0.007,0.023,-0.003,72.66,111.21,0
199082.0,0.005,-0.022,-0.019,-47.86,-165.02,0
199087.0,0.0,-0.015,0.014,-46.71,-1.62,0
199092.0,0.003,-0.013,0.031,-22.13,-5.17,0
199097.0,0.012,-0.02,-0.007,-53.91,-120.96,0
199102.0,0.005,-0.037,-0.022,-58.5,-166.61,0
199107.0,0.005,-0.037,0.031,-49.41,-9.53,0
199112.0,-0.024,-0.025,0.038,-28.77,31.73,0
199117.0,-0.009,0.011,-0.003,49.89,106.0,0
199122.0,0.024,0.014,0.009,27.77,-69.01,0
199127.0,-0.019,-0.01,0.002,-28.42,83.44,0
199132.0,0.008,-0.02,-0.007,-61.81,-134.38,0
199137.0,0.005,0.019,0.012,55.28,-23.85,0
199142.0,0.017,0.021,0.002,50.41,-82.84,0
199147.0,0.015,-0.013,0.043,-15.55,-19.01,0
199152.0,-0.002,0.021,-0.015,54.82,172.22,0
199157.0,0.015,0.047,0.002,72.47,-81.69,0
199162.0,-0.009,0.023,-0.003,67.72,106.0,0
199167.0,0.005,0.007,0.024,15.09,-12.34,0
199172.0,0.012,0.03,-0.022,50.59,-150.41,0
199177.0,0.012,-0.008,-0.01,-26.35,-128.43,0
199182.0,0.034,0.026,0.019,33.49,-60.85,0
199187.0,0.0,0.011,-0.007,56.75,-176.92,0
199192.0,0.005,-0.001,-0.003,-6.26,-116.9,0
199197.0,-0.045,-0.013,-0.029,-13.24,122.72,0
199202.0,0.008,-0.034,0.019,-59.18,-21.84,0
199207.0,-0.012,-0.041,0.009,-70.22,51.1,0
199212.0,-0.024,-0.032,-0.015,-48.9,121.81,0
199217.0,0.0,0.016,0.028,29.5,-0.8,0
199222.0,0.01,-0.008,0.017,-22.06,-31.12,0
199227.0,0.017,-0.022,-0.019,-40.59,-138.5,0
199232.0,0.003,-0.001,-0.024,-1.5,-173.41,0
199237.0,-0.007,-0.015,0.024,-31.32,15.97,0
199242.0,-0.007,0.019,0.017,46.03,22.32,0
199247.0,0.0,-0.001,0.028,-1.28,-0.8,0
199252.0,0.02,0.026,-0.012,48.11,-121.98,0
199257.0,-0.004,-0.003,0.038,-4.52,6.58,0
199262.0,0.017,0.014,0.012,33.44,-55.64,0
199267.0,0.027,0.009,-0.012,16.92,-114.54,0
199272.0,0.02,0.007,0.019,13.53,-45.95,0
199277.0,0.008,0.016,0.002,63.94,-74.12,0
199282.0,0.005,0.009,-0.015,29.97,-160.44,0
199287.0,0.01,0.014,0.026,26.16,-20.92,0
199292.0,0.0,0.014,0.005,71.6,-5.01,0
199297.0,-0.002,-0.029,-0.029,-45.33,176.06,0
199302.0,-0.012,-0.005,0.012,-18.23,44.6,0
199307.0,-0.012,-0.008,-0.012,-24.94,136.53,0
199312.0,-0.009,0.007,0.017,19.1,29.05,0
199317.0,0.01,-0.005,0.014,-17.42,-35.23,0
199322.0,0.003,-0.001,0.021,-1.7,-7.47,0
199327.0,-0.026,0.002,0.028,2.61,42.31,0
199332.0,-0.021,-0.015,-0.012,-31.57,120.0,0
199337.0,0.01,-0.039,0.021,-58.86,-25.09,0
199342.0,-0.019,-0.02,-0.019,-36.27,135.96,0
199347.0,0.0,-0.037,0.014,-68.86,-1.62,0
199352.0,-0.002,-0.003,-0.034,-5.12,176.62,0
199357.0,-0.026,-0.015,0.026,-22.18,44.82,0
199362.0,0.008,-0.022,0.002,-70.44,-74.12,0
199367.0,0.027,-0.001,0.031,-0.9,-40.88,0
199372.0,0.003,0.009,-0.005,57.24,-150.94,0
199377.0,0.01,0.007,-0.015,20.31,-145.66,0
199382.0,0.015,0.045,-0.003,71.51,-100.11,0
199387.0,0.005,0.014,-0.022,31.51,-166.61,0
199392.0,-0.004,0.021,-0.017,49.98,165.52,0
199397.0,0.02,0.019,0.002,43.27,-83.71,0
199402.0,-0.004,0.042,-0.005,81.07,138.87,0
199407.0,-0.002,0.026,0.017,57.07,6.89,0
199412.0,0.003,-0.022,-0.031,-35.17,-174.91,0
199417.0,0.012,0.002,0.005,7.59,-69.81,0
199422.0,-0.028,-0.013,-0.003,-23.9,95.31,0
199427.0,-0.014,-0.003,0.021,-6.79,33.24,0
199432.0,-0.012,0.014,0.007,45.49,59.03,0
199437.0,-0.026,-0.041,0.038,-41.91,34.27,0
199442.0,-0.007,-0.005,0.021,-13.64,17.66,0
199447.0,-0.016,-0.058,-0.005,-73.59,107.08,0
199452.0,-0.031,-0.005,0.028,-7.38,47.16,0
199457.0,-0.024,-0.015,0.036,-19.34,33.42,0
199462.0,-0.007,-0.039,0.036,-47.0,10.77,0
199467.0,-0.024,0.014,-0.012,27.37,117.41,0
199472.0,-0.021,-0.022,-0.017,-39.27,128.79,0
199477.0,-0.028,0.002,0.014,3.17,63.5,0
199482.0,0.003,0.026,0.005,78.26,-31.55,0
199487.0,-0.004,0.074,0.012,80.34,20.51,0
199492.0,0.015,0.035,-0.024,51.23,-148.59,0
199497.0,-0.009,0.019,-0.027,33.37,160.95,0
199502.0,0.005,0.047,-0.036,52.29,-171.83,0
199507.0,0.043,0.028,0.021,30.11,-63.9,0
199512.0,0.0,0.016,0.024,34.22,-0.96,0
199517.0,0.017,-0.005,0.017,-12.83,-46.08,0
199522.0,0.012,-0.003,-0.043,-3.85,-164.07,0
199527.0,-0.021,-0.008,0.012,-17.92,60.98,0
199532.0,0.008,-0.01,0.017,-29.33,-24.65,0
199537.0,0.008,0.021,0.012,56.25,-32.87,0
199542.0,-0.004,-0.025,0.024,-45.56,10.49,0
199547.0,-0.024,-0.015,-0.005,-31.93,102.05,0
199552.0,0.01,-0.001,0.007,-3.01,-55.16,0
199557.0,-0.016,-0.015,-0.005,-41.24,107.08,0
199562.0,-0.014,0.011,0.045,13.46,17.15,0
199567.0,0.008,-0.001,0.038,-0.94,-11.26,0
199572.0,-0.024,-0.005,0.007,-12.47,73.57,0
199577.0,-0.016,0.004,-0.017,9.98,136.09,0
199582.0,-0.016,0.016,-0.027,27.32,148.38,0
199587.0,-0.009,0.016,0.012,47.26,38.03,0
199592.0,-0.014,0.009,0.009,28.01,56.23,0
199597.0,-0.012,-0.005,-0.022,-12.41,152.02,0
199602.0,0.0,0.023,-0.019,50.23,-178.82,0
199607.0,-0.019,0.007,0.007,18.12,69.68,0
199612.0,0.015,0.042,0.014,64.3,-46.26,0
199617.0,-0.012,0.021,-0.0,61.03,91.18,0
199622.0,0.01,0.002,0.024,3.91,-22.82,0
199627.0,0.017,0.028,-0.003,58.29,-98.72,0
199632.0,0.01,-0.008,-0.017,-21.65,-149.59,0
199637.0,0.008,-0.015,-0.007,-54.74,-134.38,0
199642.0,0.02,0.026,-0.036,32.02,-151.59,0
199647.0,0.01,-0.029,-0.015,-58.94,-145.66,0
199652.0,0.0,-0.015,0.019,-38.42,-1.21,0
199657.0,0.005,-0.032,0.005,-77.74,-48.75,0
199662.0,0.022,-0.001,-0.0,-1.67,-90.62,0
199667.0,-0.007,-0.015,-0.029,-26.76,166.82,0
199672.0,-0.012,-0.001,0.007,-2.71,59.03,0
199677.0,-0.004,-0.017,0.026,-33.32,9.55,0
199682.0,-0.019,-0.013,0.009,-31.04,63.53,0
199687.0,-0.004,-0.01,-0.005,-56.84,138.87,0
199692.0,-0.016,-0.017,-0.031,-26.19,152.45,0
199697.0,0.0,-0.032,-0.003,-85.21,-171.38,0
199702.0,-0.045,0.009,-0.022,10.12,115.79,0
199707.0,0.0,0.023,-0.036,32.8,-179.37,0
199712.0,-0.002,0.007,0.05,7.44,2.28,0
199717.0,-0.033,-0.003,0.014,-4.81,66.9,0
199722.0,0.008,0.047,0.055,40.48,-7.87,0
199727.0,0.01,0.028,0.007,66.6,-55.16,0
199732.0,0.017,0.019,-0.017,37.47,-134.73,0
199737.0,0.0,-0.003,0.005,-33.58,-5.01,0
199742.0,-0.002,0.023,0.024,44.41,4.81,0
199747.0,-0.009,-0.005,-0.003,-29.61,106.0,0
199752.0,0.01,0.002,-0.015,5.67,-145.66,0
199757.0,0.048,-0.013,0.017,-13.88,-71.11,0
199762.0,-0.002,-0.039,0.031,-51.53,3.7,0
199767.0,0.003,-0.027,0.007,-74.49,-21.91,0
199772.0,0.02,-0.01,-0.017,-21.52,-131.0,0
199777.0,0.017,-0.017,-0.003,-45.06,-98.72,0
199782.0,0.017,0.004,0.009,11.99,-61.44,0
199787.0,-0.004,-0.003,-0.024,-7.03,169.71,0
199792.0,0.012,0.009,-0.005,33.8,-112.12,0
199797.0,0.02,-0.032,-0.007,-56.64,-110.78,0
199802.0,0.008,0.007,-0.005,35.73,-123.55,0
199807.0,-0.021,-0.022,-0.043,-24.71,153.99,0
199812.0,0.01,-0.001,0.028,-1.21,-19.3,0
199817.0,0.032,0.004,0.036,4.98,-41.46,0
199822.0,-0.028,0.026,0.012,39.96,67.5,0
199827.0,-0.002,0.007,0.057,6.52,2.0,0
199832.0,-0.014,0.033,-0.017,56.21,140.59,0
199837.0,-0.031,0.028,0.028,33.84,47.16,0
199842.0,-0.007,0.011,0.005,54.22,56.15,0
199847.0,-0.019,0.004,0.019,8.86,44.76,0
199852.0,-0.016,0.007,0.017,15.72,44.72,0
199857.0,0.003,0.011,-0.003,71.29,-133.3,0
199862.0,0.015,0.021,0.009,50.12,-57.69,0
199867.0,0.003,-0.027,-0.01,-69.28,-164.11,0
199872.0,-0.031,-0.02,0.026,-26.15,49.66,0
199877.0,0.027,-0.01,0.014,-18.67,-62.15,0
199882.0,0.003,-0.02,0.026,-37.02,-6.11,0
199887.0,0.003,0.002,-0.031,3.19,-174.91,0
199892.0,-0.004,-0.001,-0.019,-1.84,167.25,0
199897.0,0.005,-0.032,0.012,-68.01,-23.85,0
199902.0,-0.007,-0.02,0.005,-67.57,56.15,0
199907.0,-0.002,-0.02,-0.017,-49.15,173.31,0
199912.0,0.008,0.009,0.04,12.25,-10.61,0
199917.0,-0.024,0.007,0.014,13.41,59.03,0
199922.0,0.029,0.014,0.009,24.17,-72.23,0
199927.0,-0.004,0.014,-0.012,46.61,160.23,0
199932.0,0.003,0.002,-0.022,4.57,-172.69,0
199937.0,-0.009,0.011,0.005,47.89,63.63,0
199942.0,0.003,0.03,-0.051,31.07,-176.84,0
199947.0,-0.026,0.016,0.002,31.77,85.25,0
199952.0,-0.016,0.007,-0.012,17.77,126.73,0
199957.0,-0.009,0.007,-0.058,6.39,170.96,0
199962.0,0.005,0.04,-0.0,82.61,-92.63,0
199967.0,-0.024,-0.003,-0.051,-3.11,155.01,0
199972.0,-0.007,-0.008,0.007,-38.86,44.33,0
199977.0,-0.033,-0.02,0.028,-24.37,49.3,0
199982.0,-0.019,-0.015,-0.01,-35.33,117.63,0
199987.0,0.005,-0.003,0.028,-5.98,-10.32,0
199992.0,0.008,-0.027,0.005,-71.85,-59.03,0
199997.0,0.012,0.03,-0.015,57.88,-139.73,0
200002.0,0.01,-0.034,0.024,-53.02,-22.82,0
200007.0,-0.002,-0.022,0.028,-37.84,4.01,0
200012.0,0.003,-0.017,0.002,-78.53,-52.33,0
200017.0,-0.004,-0.025,0.014,-58.96,17.26,0
200022.0,0.008,0.026,-0.058,23.83,-172.51,0
200027.0,-0.012,0.014,0.002,49.39,79.44,0
200032.0,0.02,0.004,0.002,11.91,-83.71,0
200037.0,0.005,0.023,-0.0,77.44,-92.63,0
200042.0,-0.009,0.007,0.007,29.62,52.89,0
200047.0,-0.007,0.016,0.007,58.94,44.33,0
200052.0,-0.012,0.014,-0.003,49.15,102.81,0
200057.0,0.003,0.028,-0.005,78.43,-150.94,0
200062.0,0.003,0.002,0.024,4.21,-6.72,0
200067.0,0.003,0.004,0.012,18.99,-13.39,0
200072.0,-0.031,0.016,-0.005,27.37,99.29,0
200077.0,-0.026,0.007,-0.019,11.42,126.78,0
200082.0,0.0,0.011,-0.024,25.11,-179.05,0
200087.0,-0.009,0.007,0.014,21.23,33.01,0
200092.0,-0.012,0.002,0.007,7.41,59.03,0
200097.0,0.005,0.009,0.05,10.07,-5.92,0
200102.0,0.012,0.016,0.005,50.73,-69.81,0
200107.0,-0.002,-0.01,0.007,-54.73,16.03,0
200112.0,0.017,-0.008,-0.003,-24.25,-98.72,0
200117.0,0.005,-0.025,0.017,-54.84,-17.43,0
200122.0,-0.004,-0.032,0.017,-61.71,14.88,0
200127.0,0.017,-0.008,0.031,-12.48,-29.05,0
200132.0,-0.002,0.007,-0.0,72.93,96.81,0
200137.0,-0.014,0.007,-0.022,14.19,147.34,0
200142.0,0.008,0.014,0.009,48.77,-39.07,0
200147.0,0.027,0.007,0.052,6.34,-27.02,0
200152.0,-0.002,0.002,0.036,2.81,3.2,0
200157.0,0.005,0.009,0.026,18.57,-11.24,0
200162.0,0.0,0.021,-0.022,43.82,-178.95,0
200167.0,-0.009,0.004,0.007,19.83,52.89,0
200172.0,0.003,0.04,-0.031,51.83,-174.91,0
200177.0,-0.016,0.014,0.021,27.06,37.51,0
200182.0,0.01,-0.001,0.028,-1.21,-19.3,0
200187.0,0.012,0.002,-0.007,6.94,-120.96,0
200192.0,0.008,0.009,0.002,48.59,-74.12,0
200197.0,-0.019,-0.037,-0.012,-58.52,123.06,0
200202.0,-0.004,-0.005,0.031,-9.87,8.09,0
200207.0,-0.009,-0.001,0.026,-1.32,19.37,0
200212.0,0.012,0.002,-0.024,3.7,-152.91,0
200217.0,0.015,-0.013,-0.01,-35.42,-123.62,0
200222.0,-0.009,-0.008,0.028,-14.64,17.85,0
200227.0,-0.024,-0.001,0.012,-1.39,63.51,0
200232.0,-0.024,0.004,-0.005,9.78,102.05,0
200237.0,0.015,-0.029,0.014,-55.17,-46.26,0
200242.0,-0.019,-0.022,-0.005,-48.81,105.0,0
200247.0,0.017,-0.008,-0.039,-10.5,-156.0,0
200252.0,0.008,-0.015,-0.055,-15.04,-172.19,0
200257.0,0.012,0.002,-0.039,2.48,-162.21,0
200262.0,0.015,0.023,0.012,51.02,-51.53,0
200267.0,0.012,-0.003,0.012,-10.09,-46.51,0
200272.0,-0.016,0.014,0.021,27.06,37.51,0
200277.0,0.008,0.019,-0.022,38.75,-160.81,0
200282.0,0.005,0.009,0.007,45.88,-36.76,0
200287.0,0.02,-0.001,0.002,-1.86,-83.71,0
200292.0,0.022,0.011,0.045,12.7,-25.87,0
200297.0,0.036,-0.013,-0.01,-18.53,-105.13,0
200302.0,0.024,-0.017,-0.029,-24.69,-139.96,0
200307.0,-0.024,0.007,-0.015,13.29,121.81,0
200312.0,0.003,0.016,0.021,36.87,-7.47,0
200317.0,0.003,-0.003,-0.003,-38.31,-133.3,0
200322.0,-0.026,0.002,-0.01,3.62,110.73,0
200327.0,-0.026,0.002,-0.0,3.87,90.53,0
200332.0,0.01,0.011,0.005,45.95,-65.48,0
200337.0,-0.007,0.009,-0.029,16.72,166.82,0
200342.0,-0.016,-0.027,-0.017,-48.83,136.09,0
200347.0,0.012,-0.034,-0.007,-67.11,-120.96,0
200352.0,0.012,-0.005,-0.01,-18.97,-128.43,0
200357.0,-0.002,0.014,-0.022,32.11,174.77,0
200362.0,0.0,0.007,0.021,17.07,-1.07,0
200367.0,-0.026,-0.015,-0.017,-25.82,123.24,0
200372.0,0.003,0.016,0.014,48.23,-11.18,0
200377.0,0.003,0.007,-0.003,59.61,-133.3,0
200382.0,0.01,0.004,-0.034,6.72,-163.54,0
200387.0,-0.009,0.023,-0.017,50.34,151.63,0
200392.0,0.017,-0.001,-0.067,-0.53,-165.69,0
200397.0,-0.014,0.019,0.024,33.94,30.51,0
200402.0,-0.004,0.009,-0.01,39.74,155.91,0
200407.0,0.017,0.016,-0.0,43.21,-90.8,0
200412.0,0.0,0.007,0.009,35.0,-2.45,0
200417.0,0.029,-0.008,-0.007,-14.58,-104.29,0
200422.0,0.0,-0.017,0.009,-61.75,-2.45,0
200427.0,0.01,0.035,0.005,72.73,-65.48,0
200432.0,0.005,0.002,0.007,11.45,-36.76,0
200437.0,0.017,-0.005,-0.0,-17.55,-90.8,0
200442.0,-0.014,0.014,0.021,28.31,33.24,0
200447.0,0.02,-0.02,-0.036,-25.71,-151.59,0
200452.0,0.022,-0.008,0.012,-17.45,-61.87,0
200457.0,-0.028,-0.032,-0.003,-48.15,95.31,0
200462.0,0.024,-0.027,-0.01,-45.79,-111.96,0
200467.0,0.005,0.03,0.017,60.4,-17.43,0
200472.0,0.015,-0.003,0.024,-6.2,-31.92,0
200477.0,-0.038,-0.008,0.012,-11.15,72.8,0
200482.0,-0.021,0.016,0.021,28.23,44.78,0
200487.0,0.0,-0.001,-0.003,-13.49,-171.38,0
200492.0,0.005,-0.01,0.024,-22.83,-12.34,0
200497.0,0.012,0.009,0.002,35.45,-80.11,0
200502.0,0.01,-0.027,0.007,-65.74,-55.16,0
200507.0,0.008,0.002,-0.036,2.72,-168.16,0
200512.0,0.005,0.002,-0.012,7.54,-156.98,0
200517.0,-0.033,0.011,-0.029,14.44,131.18,0
200522.0,0.039,0.04,0.007,45.53,-79.83,0
200527.0,-0.019,-0.02,0.009,-43.37,63.53,0
200532.0,0.003,0.019,-0.007,66.82,-159.37,0
200537.0,0.01,0.035,0.028,49.44,-19.3,0
200542.0,-0.016,0.007,0.024,12.8,34.61,0
200547.0,0.0,-0.044,-0.003,-86.52,-171.38,0
200552.0,-0.007,-0.003,-0.022,-7.57,162.7,0
200557.0,-0.009,-0.01,0.017,-28.39,29.05,0
200562.0,0.0,0.021,-0.007,70.43,-176.92,0
200567.0,-0.012,-0.008,-0.0,-34.05,91.18,0
200572.0,-0.007,-0.015,-0.0,-65.66,92.01,0
200577.0,-0.002,-0.001,-0.0,-17.63,96.81,0
200582.0,-0.024,0.016,-0.0,34.4,90.58,0
200587.0,0.003,-0.001,-0.007,-4.6,-159.37,0
200592.0,0.005,0.033,-0.007,74.6,-145.04,0
200597.0,-0.012,-0.003,0.012,-10.43,44.6,0
200602.0,-0.004,-0.013,0.026,-25.48,9.55,0
200607.0,-0.009,0.033,-0.019,56.88,154.67,0
200612.0,0.0,0.011,-0.039,16.38,-179.41,0
200617.0,-0.019,0.016,-0.005,39.7,105.0,0
200622.0,-0.016,0.026,-0.034,34.41,154.14,0
200627.0,0.01,0.011,-0.017,29.9,-149.59,0
200632.0,-0.012,-0.025,-0.007,-60.78,122.67,0
200637.0,0.0,0.004,-0.007,29.18,-176.92,0
200642.0,0.01,0.028,-0.027,44.7,-159.42,0
200647.0,-0.016,-0.017,0.012,-40.83,54.35,0
200652.0,-0.016,-0.037,-0.029,-47.69,150.54,0
200657.0,0.005,-0.029,-0.0,-79.97,-92.63,0
200662.0,0.005,-0.008,0.002,-54.31,-67.43,0
200667.0,0.005,0.007,-0.007,35.86,-145.04,0
200672.0,0.005,-0.015,0.019,-37.41,-15.34,0
200677.0,0.01,-0.005,0.017,-15.71,-31.12,0
200682.0,0.008,0.002,0.005,11.23,-59.03,0
200687.0,-0.007,0.019,0.007,62.33,44.33,0
200692.0,0.0,-0.003,0.009,-17.98,-2.45,0
200697.0,-0.004,0.002,-0.022,4.52,168.61,0
200702.0,0.02,-0.003,0.007,-8.32,-70.45,0
200707.0,-0.019,-0.037,0.045,-36.73,22.51,0
200712.0,-0.009,0.011,0.024,24.03,21.17,0
200717.0,-0.019,0.002,-0.031,2.75,149.12,0
200722.0,0.01,0.009,0.024,19.17,-22.82,0
200727.0,-0.033,-0.008,-0.024,-10.8,126.13,0
200732.0,0.0,0.004,-0.019,12.08,-178.82,0
200737.0,-0.002,0.023,0.009,67.72,12.06,0
200742.0,-0.014,-0.005,-0.012,-16.31,131.16,0
200747.0,0.015,0.035,-0.022,53.27,-145.87,0
200752.0,0.005,0.007,0.026,13.82,-11.24,0
200757.0,-0.009,0.026,-0.022,47.39,157.16,0
200762.0,0.029,-0.005,-0.01,-10.01,-108.62,0
200767.0,-0.002,-0.01,-0.041,-13.99,177.21,0
200772.0,0.005,-0.02,0.024,-39.2,-12.34,0
200777.0,-0.019,-0.02,0.043,-22.93,23.63,0
200782.0,0.012,-0.013,-0.01,-38.61,-128.43,0
200787.0,-0.014,-0.01,0.024,-20.37,30.51,0
200792.0,-0.004,-0.032,-0.007,-74.81,149.39,0
200797.0,0.046,-0.008,0.009,-9.48,-78.5,0
200802.0,0.01,-0.02,0.024,-37.58,-22.82,0
200807.0,0.022,0.016,-0.017,30.15,-127.76,0
200812.0,0.01,-0.005,0.028,-10.19,-19.3,0
200817.0,-0.009,0.03,0.009,66.76,44.5,0
200822.0,0.008,-0.015,-0.027,-28.5,-164.08,0
200827.0,0.003,-0.001,-0.019,-1.87,-171.8,0
200832.0,0.012,-0.005,0.031,-9.26,-21.83,0
200837.0,-0.007,-0.005,-0.019,-14.8,160.72,0
200842.0,-0.019,0.016,-0.0,40.68,90.73,0
200847.0,0.02,0.014,-0.031,20.38,-148.06,0
200852.0,-0.014,-0.02,0.04,-24.81,19.04,0
200857.0,-0.007,0.011,0.002,57.87,72.37,0
200862.0,0.012,0.009,-0.01,29.51,-128.43,0
200867.0,0.005,-0.008,0.002,-54.31,-67.43,0
200872.0,-0.007,-0.001,-0.003,-5.01,111.21,0
200877.0,0.005,-0.013,-0.003,-65.24,-116.9,0
200882.0,0.008,-0.01,-0.0,-53.4,-91.8,0
200887.0,0.032,0.021,-0.01,32.35,-107.29,0
200892.0,0.003,0.002,-0.0,32.06,-94.88,0
200897.0,-0.002,-0.027,-0.015,-61.35,172.22,0
200902.0,0.024,0.021,0.012,37.73,-64.26,0
200907.0,-0.019,-0.032,0.007,-57.8,69.68,0
200912.0,0.003,0.009,-0.0,72.59,-94.88,0
200917.0,0.008,0.009,-0.007,40.12,-134.38,0
200922.0,-0.009,-0.001,-0.005,-3.49,118.71,0
200927.0,0.005,-0.008,-0.0,-56.42,-92.63,0
200932.0,-0.004,0.019,0.012,55.92,20.51,0
200937.0,0.017,0.035,0.002,63.88,-82.84,0
200942.0,0.008,0.009,-0.015,28.51,-152.56,0
200947.0,0.008,0.026,-0.015,57.37,-152.56,0
200952.0,0.029,0.019,-0.0,32.44,-90.47,0
200957.0,-0.026,0.019,-0.022,28.66,130.03,0
200962.0,-0.002,0.016,-0.022,36.39,174.77,0
200967.0,-0.026,0.023,-0.024,33.31,132.99,0
200972.0,-0.016,-0.001,-0.017,-1.55,136.09,0
200977.0,0.005,-0.015,-0.039,-21.09,-172.34,0
200982.0,0.008,0.016,-0.0,64.8,-91.8,0
200987.0,0.005,0.007,0.043,8.62,-6.9,0
200992.0,0.003,0.028,-0.01,70.04,-164.11,0
200997.0,-0.009,-0.015,0.005,-55.68,63.63,0
201002.0,0.005,-0.008,0.045,-9.74,-6.54,0
201007.0,-0.031,-0.017,-0.019,-25.59,122.26,0
201012.0,0.01,-0.017,0.024,-34.08,-22.82,0
201017.0,-0.033,0.016,-0.022,22.13,123.34,0
201022.0,0.012,-0.001,0.012,-2.14,-46.51,0
201027.0,-0.016,0.002,0.005,5.9,74.46,0
201032.0,0.017,-0.027,-0.015,-50.13,-130.4,0
201037.0,-0.007,0.021,-0.031,33.09,167.8,0
201042.0,-0.002,0.016,-0.024,33.6,175.28,0
201047.0,-0.05,0.023,-0.005,24.93,95.75,0
201052.0,0.012,0.019,-0.005,54.2,-112.12,0
201057.0,-0.019,-0.022,0.036,-28.83,27.73,0
201062.0,0.01,0.03,0.009,65.86,-46.89,0
201067.0,0.015,-0.008,-0.06,-7.2,-166.2,0
201072.0,0.008,-0.001,0.031,-1.15,-13.79,0
201077.0,-0.016,-0.02,0.031,-29.52,27.91,0
201082.0,0.01,0.004,0.007,18.85,-55.16,0
201087.0,0.0,0.019,-0.01,62.05,-177.67,0
201092.0,0.01,0.023,-0.015,52.8,-145.66,0
201097.0,0.005,0.009,-0.012,33.97,-156.98,0
201102.0,-0.007,-0.015,-0.019,-36.14,160.72,0
201107.0,-0.007,0.007,0.009,29.55,36.0,0
201112.0,-0.014,0.033,-0.041,37.24,161.16,0
201117.0,0.003,0.009,0.007,50.06,-21.91,0
201122.0,-0.021,-0.01,0.033,-14.52,32.43,0
201127.0,0.0,0.021,-0.012,59.71,-178.13,0
201132.0,-0.009,-0.003,0.031,-5.38,16.55,0
201137.0,-0.028,0.011,0.043,12.44,33.47,0
201142.0,-0.019,-0.015,0.038,-19.47,26.23,0
201147.0,-0.007,0.002,-0.0,14.5,92.01,0
201152.0,0.008,-0.003,-0.027,-6.26,-164.08,0
201157.0,-0.004,-0.001,-0.012,-2.82,160.23,0
201162.0,-0.012,-0.001,-0.0,-3.16,91.18,0
201167.0,-0.019,0.004,-0.024,7.72,142.2,0
201172.0,0.015,0.014,0.031,21.85,-25.55,0
201177.0,-0.007,-0.003,0.026,-6.42,14.57,0
201182.0,0.02,0.016,-0.017,31.89,-131.0,0
201187.0,-0.002,0.035,-0.022,58.19,174.77,0
201192.0,0.008,0.007,-0.022,15.84,-160.81,0
201197.0,0.012,-0.027,0.028,-40.97,-23.47,0
201202.0,0.027,0.014,0.017,23.59,-58.29,0
201207.0,-0.016,0.016,-0.012,38.3,126.73,0
201212.0,0.0,0.021,-0.01,64.84,-177.67,0
201217.0,-0.002,0.014,-0.007,60.76,164.95,0
201222.0,0.02,0.002,0.019,3.69,-45.95,0
201227.0,-0.021,0.009,-0.005,22.35,103.37,0
201232.0,-0.007,-0.01,0.014,-33.1,25.65,0
201237.0,-0.007,-0.001,0.028,-1.25,13.39,0
201242.0,0.022,0.007,-0.015,13.94,-123.64,0
201247.0,-0.031,0.002,-0.015,2.95,115.42,0
201252.0,-0.021,0.014,0.026,22.23,39.02,0
201257.0,-0.021,0.023,0.038,28.15,29.05,0
201262.0,-0.002,-0.017,-0.005,-72.73,158.35,0
201267.0,0.024,0.014,0.009,27.77,-69.01,0
201272.0,-0.014,-0.008,0.057,-7.56,13.72,0
201277.0,-0.021,0.023,0.024,36.26,41.74,0
201282.0,0.008,-0.008,0.021,-19.07,-19.58,0
201287.0,-0.014,0.014,0.024,26.52,30.51,0
201292.0,0.003,0.021,0.024,41.22,-6.72,0
201297.0,0.008,-0.003,0.009,-14.15,-39.07,0
201302.0,-0.021,0.011,-0.043,13.23,153.99,0
201307.0,-0.002,-0.015,-0.003,-77.59,142.84,0
201312.0,0.003,0.004,0.012,18.99,-13.39,0
201317.0,0.008,0.019,0.009,56.99,-39.07,0
201322.0,0.02,0.038,-0.015,57.06,-126.76,0
201327.0,0.008,-0.003,-0.003,-20.7,-109.15,0
201332.0,-0.002,0.03,-0.012,67.91,170.72,0
201337.0,-0.007,0.023,0.028,38.51,13.39,0
201342.0,0.01,0.002,0.04,2.41,-13.85,0
201347.0,0.008,-0.003,-0.005,-18.44,-123.55,0
201352.0,-0.038,-0.022,0.017,-28.21,66.45,0
201357.0,-0.024,0.014,-0.027,21.14,138.46,0
201362.0,0.01,0.011,-0.003,47.69,-104.78,0
201367.0,-0.019,0.007,-0.005,18.63,105.0,0
201372.0,0.005,-0.015,0.014,-44.91,-20.16,0
201377.0,-0.019,-0.008,-0.0,-22.64,90.73,0
201382.0,0.0,0.004,0.024,9.93,-0.96,0
201387.0,-0.007,-0.02,0.017,-47.94,22.32,0
201392.0,-0.019,0.023,-0.007,49.12,111.59,0
201397.0,0.015,-0.008,0.024,-15.65,-31.92,0
201402.0,-0.004,0.023,0.005,74.82,43.97,0
201407.0,0.012,-0.02,-0.01,-51.42,-128.43,0
201412.0,-0.014,-0.005,0.005,-20.28,71.96,0
201417.0,0.022,0.014,-0.022,23.94,-134.79,0
201422.0,0.0,0.002,0.005,21.03,-5.01,0
201427.0,-0.019,-0.029,0.007,-55.75,69.68,0
201432.0,0.012,0.019,0.033,27.54,-20.39,0
201437.0,-0.016,0.009,0.019,19.67,40.86,0
201442.0,0.003,-0.044,-0.034,-52.24,-175.27,0
201447.0,0.003,-0.003,-0.029,-5.95,-174.49,0
201452.0,0.003,-0.003,0.007,-22.06,-21.91,0
201457.0,0.0,-0.001,-0.034,-1.08,-179.32,0
201462.0,0.003,-0.044,-0.017,-68.5,-170.67,0
201467.0,0.012,-0.008,0.017,-20.75,-36.82,0
201472.0,0.0,-0.017,0.002,-82.82,-10.48,0
201477.0,-0.014,-0.01,-0.005,-34.54,109.8,0
201482.0,0.005,-0.022,0.007,-68.66,-36.76,0
201487.0,0.029,-0.015,-0.029,-20.06,-134.84,0
201492.0,-0.004,-0.022,0.021,-45.56,11.64,0
201497.0,-0.009,0.002,-0.015,5.81,147.85,0
201502.0,-0.016,0.016,0.014,36.72,49.19,0
201507.0,-0.021,0.011,0.012,25.11,60.98,0
201512.0,0.0,0.014,-0.019,35.29,-178.82,0
201517.0,-0.019,-0.001,0.036,-0.91,27.73,0
201522.0,0.005,0.023,0.017,53.38,-17.43,0
201527.0,0.017,-0.003,0.021,-6.33,-38.84,0
201532.0,-0.012,-0.01,-0.024,-20.86,154.43,0
201537.0,-0.007,-0.013,-0.029,-22.97,166.82,0
201542.0,0.0,0.011,0.007,58.46,-3.29,0
201547.0,0.039,0.009,0.012,12.46,-73.14,0
201552.0,0.0,0.026,-0.031,39.33,-179.27,0
201557.0,0.008,0.002,-0.012,6.97,-148.16,0
201562.0,-0.012,0.014,0.019,31.76,31.46,0
201567.0,0.022,-0.005,-0.003,-13.79,-96.84,0
201572.0,0.012,-0.001,0.021,-1.48,-30.13,0
201577.0,-0.031,0.009,-0.022,13.35,125.34,0
201582.0,0.017,0.023,0.024,38.53,-35.9,0
201587.0,0.003,0.002,0.005,18.2,-31.55,0
201592.0,0.008,-0.003,0.024,-6.95,-17.74,0
201597.0,0.008,-0.013,-0.005,-54.19,-123.55,0
201602.0,-0.031,0.004,-0.019,6.52,122.26,0
201607.0,0.017,0.004,-0.022,8.51,-141.78,0
201612.0,-0.026,0.002,-0.029,2.59,138.16,0
201617.0,0.027,0.011,0.007,22.31,-75.44,0
201622.0,0.005,-0.005,0.026,-11.53,-11.24,0
201627.0,-0.043,0.016,0.019,19.05,66.11,0
201632.0,-0.002,0.014,0.017,39.52,6.89,0
201637.0,0.003,0.014,-0.022,32.0,-172.69,0
201642.0,-0.007,0.009,0.002,51.47,72.37,0
201647.0,-0.019,0.014,0.017,28.78,48.62,0
201652.0,0.003,0.03,-0.0,84.75,-94.88,0
201657.0,0.008,-0.015,0.019,-36.36,-21.84,0
201662.0,0.012,0.009,0.045,10.79,-15.29,0
201667.0,-0.007,0.004,0.024,9.55,15.97,0
201672.0,0.01,0.026,0.031,38.37,-17.9,0
201677.0,-0.028,0.014,0.005,25.57,80.88,0
201682.0,0.005,-0.008,0.012,-31.37,-23.85,0
201687.0,0.017,-0.003,-0.0,-10.02,-90.8,0
201692.0,0.015,0.011,-0.019,24.94,-142.72,0
201697.0,0.01,-0.01,0.007,-40.04,-55.16,0
201702.0,-0.012,0.011,0.019,27.07,31.46,0
201707.0,-0.021,0.033,0.007,55.9,71.82,0
201712.0,-0.002,-0.01,-0.015,-34.72,172.22,0
201717.0,0.012,0.026,-0.01,58.43,-128.43,0
201722.0,0.017,0.019,0.002,46.95,-82.84,0
201727.0,0.01,0.014,0.028,24.45,-19.3,0
201732.0,-0.007,0.011,0.014,35.87,25.65,0
201737.0,0.012,0.009,-0.005,33.8,-112.12,0
201742.0,-0.007,0.028,-0.031,41.2,167.8,0
201747.0,-0.014,-0.003,0.024,-6.29,30.51,0
201752.0,-0.007,-0.034,-0.029,-48.94,166.82,0
201757.0,-0.031,-0.008,0.021,-11.81,55.26,0
201762.0,0.0,0.009,0.043,11.78,-0.53,0
201767.0,-0.007,0.014,-0.0,63.69,92.01,0
201772.0,0.017,0.004,-0.029,7.03,-149.36,0
201777.0,-0.007,0.004,0.026,8.75,14.57,0
201782.0,0.0,-0.013,0.067,-10.69,-0.34,0
201787.0,-0.04,-0.017,-0.007,-23.0,100.43,0
201792.0,0.022,0.016,-0.015,31.45,-123.64,0
201797.0,0.02,0.009,0.04,11.25,-25.79,0
201802.0,0.003,-0.022,-0.019,-48.55,-171.8,0
201807.0,-0.021,-0.022,-0.003,-46.15,97.09,0
201812.0,0.0,0.019,0.031,30.94,-0.74,0
201817.0,0.012,-0.003,0.014,-9.17,-41.21,0
201822.0,0.0,-0.01,-0.01,-46.12,-177.67,0
201827.0,0.005,-0.008,-0.005,-47.27,-134.1,0
201832.0,0.024,-0.02,0.002,-39.01,-84.94,0
201837.0,0.003,-0.008,-0.015,-27.75,-169.17,0
201842.0,0.003,-0.015,-0.015,-45.26,-169.17,0
201847.0,-0.004,-0.017,-0.017,-44.74,165.52,0
201852.0,0.0,-0.005,-0.019,-15.63,-178.82,0
201857.0,-0.021,0.009,-0.003,22.75,97.09,0
201862.0,0.003,-0.02,0.005,-74.9,-31.55,0
201867.0,0.005,-0.013,-0.017,-35.36,-163.03,0
201872.0,-0.007,-0.022,0.002,-72.21,72.37,0
201877.0,-0.007,0.009,-0.007,41.64,137.57,0
201882.0,0.022,-0.01,0.014,-21.37,-57.23,0
201887.0,-0.038,-0.01,0.021,-13.22,60.66,0
201892.0,0.012,-0.005,-0.022,-12.22,-150.41,0
201897.0,-0.004,0.011,0.014,37.45,17.26,0
201902.0,0.005,0.009,-0.0,59.84,-92.63,0
201907.0,0.0,0.009,-0.043,11.65,-179.47,0
201912.0,0.02,-0.003,-0.005,-8.54,-104.42,0
201917.0,-0.014,0.011,0.012,31.85,49.97,0
201922.0,0.012,-0.005,0.007,-20.93,-60.69,0
201927.0,0.005,-0.01,0.028,-19.43,-10.32,0
201932.0,0.01,0.009,0.031,15.4,-17.9,0
201937.0,0.0,-0.017,-0.0,-88.47,-120.86,0
201942.0,0.003,0.026,0.005,78.26,-31.55,0
201947.0,-0.002,0.019,-0.005,73.72,158.35,0
201952.0,0.027,0.004,-0.022,6.86,-129.18,0
201957.0,0.027,0.03,0.005,48.34,-80.34,0
201962.0,-0.007,0.038,0.038,44.25,10.1,0
201967.0,-0.002,-0.005,-0.0,-69.68,96.81,0
201972.0,-0.024,-0.017,0.019,-29.95,51.22,0
201977.0,-0.002,0.016,-0.007,64.52,164.95,0
201982.0,0.017,0.019,0.005,46.21,-75.15,0
201987.0,0.008,0.04,0.012,70.78,-32.87,0
201992.0,-0.033,0.023,0.009,34.11,74.25,0
201997.0,0.003,-0.015,-0.022,-34.34,-172.69,0
202002.0,0.02,0.011,0.005,29.45,-76.9,0
202007.0,0.012,-0.008,-0.005,-30.36,-112.12,0
202012.0,0.0,0.014,0.036,21.04,-0.64,0
202017.0,-0.016,-0.027,-0.01,-54.73,120.96,0
202022.0,0.008,-0.037,0.009,-71.78,-39.07,0
202027.0,-0.026,-0.027,-0.024,-37.26,132.99,0
202032.0,0.015,-0.008,-0.015,-20.64,-134.69,0
202037.0,-0.016,-0.02,-0.019,-37.96,139.85,0
202042.0,-0.012,0.035,0.031,46.92,20.54,0
202047.0,-0.033,0.026,-0.019,33.81,120.35,0
202052.0,0.041,0.028,-0.005,34.15,-96.97,0
202057.0,0.01,0.016,0.012,46.31,-40.37,0
202062.0,-0.009,-0.001,-0.007,-3.1,128.96,0
202067.0,-0.024,0.004,0.002,9.96,84.77,0
202072.0,0.008,0.011,0.012,39.05,-32.87,0
202077.0,0.005,-0.01,-0.019,-26.97,-165.02,0
202082.0,-0.002,-0.015,-0.0,-82.37,96.81,0
202087.0,0.017,0.021,0.009,46.95,-61.44,0
202092.0,-0.004,-0.003,0.048,-3.63,5.26,0
202097.0,-0.004,0.002,-0.015,6.57,163.27,0
202102.0,-0.009,-0.01,-0.022,-23.37,157.16,0
202107.0,-0.012,0.038,0.052,35.05,12.45,0
202112.0,0.008,0.004,0.002,27.77,-74.12,0
202117.0,-0.002,0.004,0.026,9.01,4.37,0
202122.0,-0.009,-0.025,-0.024,-43.54,159.22,0
202127.0,-0.004,0.014,-0.039,19.49,173.5,0
202132.0,0.01,-0.003,0.045,-3.74,-12.43,0
202137.0,-0.014,-0.003,0.002,-12.11,81.22,0
202142.0,0.003,-0.01,-0.024,-22.77,-173.41,0
202147.0,-0.016,-0.008,-0.0,-25.55,90.83,0
202152.0,0.017,-0.025,0.014,-47.88,-50.53,0
202157.0,-0.016,0.002,0.012,4.98,54.35,0
202162.0,0.005,0.016,-0.017,42.21,-163.03,0
202167.0,-0.007,0.023,0.005,70.68,56.15,0
202172.0,0.008,0.026,-0.015,57.37,-152.56,0
202177.0,0.0,-0.003,0.019,-9.11,-1.21,0
202182.0,0.008,-0.013,0.002,-57.99,-74.12,0
202187.0,-0.007,-0.008,0.002,-47.69,72.37,0
202192.0,0.005,0.021,0.024,40.75,-12.34,0
202197.0,-0.026,-0.001,0.017,-1.19,57.5,0
202202.0,0.043,0.004,0.017,5.1,-69.2,0
202207.0,-0.031,-0.008,-0.01,-13.63,107.72,0
202212.0,-0.014,-0.015,0.002,-46.71,81.22,0
202217.0,0.0,0.004,-0.029,8.15,-179.21,0
202222.0,-0.028,0.007,-0.01,12.31,109.11,0
202227.0,-0.012,0.011,0.036,16.81,17.97,0
202232.0,-0.031,-0.005,0.045,-5.67,34.18,0
202237.0,0.0,-0.01,0.007,-55.75,-3.29,0
202242.0,-0.026,-0.005,-0.007,-11.37,105.97,0
202247.0,-0.004,0.002,-0.019,5.05,167.25,0
202252.0,0.003,-0.015,0.036,-22.75,-4.48,0
202257.0,0.005,-0.017,0.009,-58.45,-29.05,0
202262.0,0.0,-0.013,0.028,-23.87,-0.8,0
202267.0,-0.009,-0.001,0.017,-1.93,29.05,0
202272.0,0.0,0.007,-0.043,8.59,-179.47,0
202277.0,-0.004,0.014,0.002,70.39,63.84,0
202282.0,0.017,0.009,0.033,13.43,-27.27,0
202287.0,-0.009,-0.008,0.038,-11.29,13.55,0
202292.0,-0.004,0.007,0.021,16.74,11.64,0
202297.0,0.003,-0.003,-0.019,-8.8,-171.8,0
202302.0,-0.004,-0.003,0.024,-7.17,10.49,0
202307.0,0.0,-0.032,0.002,-86.05,-10.48,0
202312.0,0.022,0.007,0.007,15.87,-72.44,0
202317.0,0.012,-0.017,-0.015,-42.27,-139.73,0
202322.0,0.0,0.002,0.021,4.71,-1.07,0
202327.0,0.032,-0.013,0.012,-20.55,-69.58,0
202332.0,0.0,-0.017,0.009,-61.75,-2.45,0
202337.0,-0.007,-0.003,0.024,-7.01,15.97,0
202342.0,0.0,0.011,-0.039,16.38,-179.41,0
202347.0,-0.012,-0.005,-0.015,-16.24,141.61,0
202352.0,-0.009,-0.015,-0.007,-51.81,128.96,0
202357.0,-0.016,0.011,0.019,24.38,40.86,0
202362.0,-0.002,0.026,0.05,27.16,2.28,0
202367.0,0.008,-0.015,0.002,-62.28,-74.12,0
202372.0,0.012,0.023,0.014,51.14,-41.21,0
202377.0,-0.033,-0.001,0.028,-0.84,49.3,0
202382.0,0.022,0.009,-0.003,22.02,-96.84,0
202387.0,0.008,-0.01,-0.007,-43.92,-134.38,0
202392.0,0.003,-0.001,0.019,-1.91,-8.4,0
202397.0,0.02,-0.001,0.017,-1.43,-49.8,0
202402.0,0.005,-0.008,0.012,-31.37,-23.85,0
202407.0,-0.007,-0.01,0.012,-37.01,30.03,0
202412.0,-0.014,-0.003,-0.005,-11.55,109.8,0
202417.0,0.017,-0.01,-0.036,-14.32,-154.61,0
202422.0,0.008,0.004,-0.019,11.27,-158.65,0
202427.0,0.008,0.007,-0.022,15.84,-160.81,0
202432.0,-0.024,0.019,-0.024,28.75,135.77,0
202437.0,0.024,0.007,0.028,9.91,-40.51,0
202442.0,-0.004,-0.013,-0.024,-27.16,169.71,0
202447.0,0.017,0.004,0.038,5.68,-24.26,0
202452.0,0.008,0.019,0.005,64.47,-59.03,0
202457.0,0.003,-0.005,-0.027,-11.48,-174.0,0
202462.0,-0.007,0.014,-0.005,58.4,126.54,0
202467.0,0.0,-0.017,0.002,-82.82,-10.48,0
202472.0,0.015,-0.003,0.014,-8.44,-46.26,0
202477.0,0.041,0.004,0.019,5.24,-65.29,0
202482.0,-0.021,-0.005,-0.005,-14.02,103.37,0
202487.0,-0.024,0.023,0.019,37.65,51.22,0
202492.0,0.029,-0.015,-0.005,-26.91,-99.79,0
202497.0,-0.014,-0.025,0.009,-55.65,56.23,0
202502.0,0.005,0.016,0.012,51.49,-23.85,0
202507.0,0.012,0.021,-0.012,50.27,-134.62,0
202512.0,-0.004,-0.001,0.012,-2.92,20.51,0
202517.0,0.005,-0.008,0.002,-54.31,-67.43,0
202522.0,-0.019,0.009,-0.012,21.77,123.06,0
202527.0,-0.014,0.007,0.005,24.01,71.96,0
202532.0,0.017,0.007,0.031,10.49,-29.05,0
202537.0,-0.036,0.004,0.031,5.04,48.99,0
202542.0,-0.009,0.033,-0.027,49.47,160.95,0
202547.0,0.0,0.028,0.014,63.29,-1.62,0
202552.0,-0.019,-0.001,0.031,-1.01,31.27,0
202557.0,-0.014,-0.025,-0.0,-60.39,90.98,0
202562.0,0.012,-0.02,0.048,-21.9,-14.55,0
202567.0,0.0,-0.005,0.019,-16.01,-1.21,0
202572.0,0.01,-0.008,-0.06,-7.32,-170.57,0
202577.0,0.005,0.03,-0.005,76.67,-134.1,0
202582.0,0.0,0.004,0.005,42.26,-5.01,0
202587.0,0.005,0.03,0.017,60.4,-17.43,0
202592.0,-0.019,-0.027,-0.003,-54.93,97.99,0
202597.0,0.005,0.004,0.05,4.72,-5.92,0
202602.0,-0.031,-0.022,-0.031,-26.81,135.59,0
202607.0,0.008,0.026,-0.0,73.55,-91.8,0
202612.0,0.022,-0.003,0.026,-5.08,-40.06,0
202617.0,-0.002,-0.037,0.012,-71.96,9.65,0
202622.0,0.027,-0.015,0.012,-27.2,-66.31,0
202627.0,0.003,-0.017,-0.019,-41.61,-171.8,0
202632.0,0.003,0.023,0.005,77.1,-31.55,0
202637.0,0.003,-0.001,0.021,-1.7,-7.47,0
202642.0,0.012,0.004,0.024,8.82,-27.56,0
202647.0,-0.009,0.028,-0.017,55.49,151.63,0
202652.0,-0.004,-0.001,0.012,-2.92,20.51,0
202657.0,-0.004,-0.013,0.017,-36.41,14.88,0
202662.0,0.012,-0.005,-0.029,-9.78,-156.88,0
202667.0,-0.012,-0.017,-0.0,-56.36,91.18,0
202672.0,0.022,-0.013,0.012,-26.87,-61.87,0
202677.0,-0.009,-0.01,0.021,-23.76,23.3,0
202682.0,-0.031,0.014,0.007,23.55,77.26,0
202687.0,-0.007,-0.01,0.021,-24.55,17.66,0
202692.0,-0.004,0.011,-0.036,17.29,173.08,0
202697.0,0.022,-0.005,-0.003,-13.79,-96.84,0
202702.0,0.01,0.011,0.019,27.92,-27.81,0
202707.0,0.012,-0.017,-0.005,-52.49,-112.12,0
202712.0,0.017,0.014,0.045,15.84,-20.77,0
202717.0,0.01,-0.001,-0.029,-1.19,-161.0,0
202722.0,0.017,0.019,0.021,34.09,-38.84,0
202727.0,0.015,-0.013,0.036,-18.09,-22.48,0
202732.0,0.017,-0.025,0.024,-40.03,-35.9,0
202737.0,0.003,-0.02,-0.019,-45.29,-171.8,0
202742.0,0.022,0.004,-0.012,9.38,-119.09,0
202747.0,-0.019,-0.032,0.026,-44.66,35.7,0
202752.0,0.0,-0.005,-0.019,-15.63,-178.82,0
202757.0,-0.012,0.011,0.028,20.23,22.1,0
202762.0,-0.004,-0.029,-0.0,-81.49,93.11,0
202767.0,0.008,-0.032,-0.012,-65.66,-148.16,0
202772.0,-0.014,-0.003,-0.019,-7.23,144.24,0
202777.0,0.008,0.03,0.045,33.6,-9.51,0
202782.0,0.0,-0.034,0.014,-67.52,-1.62,0
202787.0,0.003,-0.001,-0.029,-1.26,-174.49,0
202792.0,-0.002,0.009,-0.036,13.87,176.84,0
202797.0,-0.009,-0.008,0.021,-18.63,23.3,0
202802.0,-0.026,-0.001,0.002,-1.41,85.25,0
202807.0,0.008,0.021,0.005,67.08,-59.03,0
202812.0,-0.002,0.004,0.021,10.97,5.35,0
202817.0,-0.007,0.011,0.009,44.47,36.0,0
202822.0,0.003,-0.02,-0.003,-79.03,-133.3,0
202827.0,0.008,0.002,-0.005,10.92,-123.55,0
202832.0,0.0,0.014,0.028,25.72,-0.8,0
202837.0,-0.002,-0.015,0.019,-38.27,6.02,0
202842.0,0.015,-0.008,0.017,-19.44,-41.79,0
202847.0,0.024,-0.029,-0.015,-45.98,-120.96,0
202852.0,0.017,-0.008,-0.031,-12.34,-151.32,0
202857.0,-0.014,0.035,0.04,39.49,19.04,0
202862.0,0.017,0.016,0.021,30.51,-38.84,0
202867.0,0.015,-0.013,0.045,-14.84,-18.07,0
202872.0,0.003,0.002,-0.007,12.49,-159.37,0
202877.0,0.015,0.011,0.007,34.78,-64.81,0
202882.0,0.003,0.004,-0.012,18.33,-167.11,0
202887.0,-0.021,-0.008,-0.015,-16.93,124.63,0
202892.0,0.003,-0.003,-0.012,-13.61,-167.11,0
202897.0,-0.004,-0.003,-0.005,-24.44,138.87,0
202902.0,-0.004,0.002,0.017,5.86,14.88,0
202907.0,-0.024,0.011,0.002,25.61,84.77,0
202912.0,-0.019,0.033,0.012,56.07,57.97,0
202917.0,-0.028,-0.005,0.014,-9.73,63.5,0
202922.0,0.043,-0.049,0.002,-48.09,-87.16,0
202927.0,-0.002,-0.053,0.028,-61.82,4.01,0
202932.0,0.029,-0.005,0.072,-4.02,-22.14,0
202937.0,0.058,0.076,0.026,50.12,-65.72,0
202942.0,-0.146,-0.082,-0.168,-20.26,139.05,0
202947.0,0.175,-0.118,0.282,-19.55,-31.82,0
202952.0,-0.079,0.04,-0.048,23.49,121.47,0
202957.0,-0.33,-0.12,-0.446,-12.25,143.47,0
202962.0,0.467,0.375,0.641,25.31,-36.07,0
202967.0,-0.354,-0.41,-0.228,-44.25,122.75,0
202972.0,0.132,0.131,-0.079,40.39,-120.96,0
202977.0,0.111,-0.087,0.088,-31.53,-51.36,0
202982.0,-0.162,-0.135,0.146,-31.68,48.08,0
202987.0,0.35,-0.123,-0.017,-19.31,-92.78,0
202992.0,-0.265,-0.01,0.103,-2.06,68.84,0
202997.0,0.403,-0.142,0.306,-15.67,-52.74,0
203002.0,0.166,0.502,0.127,67.45,-52.59,0
203007.0,-0.301,0.165,0.007,28.64,88.68,0
203012.0,0.388,0.442,0.105,47.72,-74.85,0
203017.0,-0.493,-0.719,0.06,-55.37,83.1,0
203022.0,0.872,-0.266,0.21,-16.54,-76.43,0
203027.0,-0.759,-0.503,-0.225,-32.46,106.54,0
203032.0,0.759,0.629,0.208,38.62,-74.68,0
203037.0,-0.04,-0.175,0.309,-29.41,7.44,0
203042.0,0.178,-0.25,0.249,-39.24,-35.52,0
203047.0,-0.296,-0.065,-0.218,-10.06,126.34,0
203052.0,0.266,0.461,-0.067,59.25,-104.19,0
203057.0,-0.665,-0.274,-0.338,-20.14,116.92,0
203062.0,0.209,0.059,-0.223,10.98,-136.89,0
203067.0,-0.543,-0.786,-0.201,-53.61,110.34,0
203072.0,0.372,0.667,0.134,59.39,-70.19,0
203077.0,-0.344,-0.228,-0.024,-33.45,94.02,0
203082.0,0.328,0.488,0.072,55.43,-77.7,0
203087.0,-0.435,-0.74,-0.077,-59.16,100.01,0
203092.0,0.439,0.435,0.057,44.53,-82.57,0
203097.0,-0.399,-0.259,-0.06,-32.69,98.56,0
203102.0,0.348,0.56,0.064,57.72,-79.5,0
203107.0,-0.292,-0.597,0.074,-63.24,75.77,0
203112.0,0.422,0.268,0.28,27.86,-56.43,0
203117.0,-0.399,-0.444,-0.065,-47.63,99.23,0
203122.0,0.398,0.744,0.158,60.09,-68.37,0
203127.0,-0.337,-0.501,-0.055,-55.71,99.31,0
203132.0,0.431,0.126,0.155,15.4,-70.19,0
203137.0,-0.392,0.514,0.017,52.63,87.59,0
203142.0,0.412,0.639,0.117,56.14,-74.14,0
203147.0,-0.349,-0.338,-0.194,-40.25,119.08,0
203152.0,0.441,0.275,0.139,30.72,-72.55,0
203157.0,-0.438,-0.707,-0.053,-58.05,96.89,0
203162.0,0.345,0.538,0.136,55.41,-68.46,0
203167.0,-0.34,-0.245,-0.209,-31.57,121.55,0
203172.0,0.316,0.339,0.124,44.95,-68.56,0
203177.0,-0.062,0.234,0.007,75.11,83.59,0
203182.0,0.331,0.445,-0.005,53.35,-90.87,0
203187.0,-0.332,-0.173,-0.151,-25.36,114.44,0
203192.0,0.316,0.433,-0.034,53.67,-96.09,0
203197.0,-0.49,-0.709,0.064,-55.11,82.52,0
203202.0,0.36,0.291,-0.13,37.33,-109.81,0
203207.0,-0.32,-0.211,0.191,-29.52,59.16,0
203212.0,0.249,0.382,-0.082,55.54,-108.13,0
203217.0,-0.045,0.208,0.012,77.35,75.41,0
203222.0,0.35,0.239,-0.065,33.86,-100.5,0
203227.0,-0.347,-0.247,0.117,-34.04,71.34,0
203232.0,0.357,-0.156,-0.213,-20.59,-120.85,0
203237.0,-0.387,0.294,-0.077,36.65,101.22,0
203242.0,0.383,-0.309,0.057,-38.6,-81.51,0
203247.0,-0.292,0.284,0.088,43.01,73.15,0
203252.0,0.357,-0.247,-0.218,-30.58,-121.41,0
203257.0,-0.117,0.279,0.005,67.28,87.77,0
203262.0,0.395,-0.293,-0.039,-36.38,-95.57,0
203267.0,-0.368,0.251,0.091,33.47,76.16,0
203272.0,0.331,-0.252,-0.144,-34.94,-113.51,0
203277.0,-0.081,0.406,-0.022,78.34,105.05,0
203282.0,0.084,-0.298,-0.007,-74.14,-95.04,0
203287.0,-0.055,0.198,0.074,65.09,36.46,0
203292.0,0.096,-0.252,-0.115,-59.23,-140.14,0
203297.0,-0.064,0.39,0.05,78.19,52.08,0
203302.0,0.084,-0.207,-0.039,-65.85,-114.6,0
203307.0,-0.086,0.054,-0.015,32.02,99.66,0
203312.0,0.067,-0.211,-0.079,-63.78,-139.6,0
203317.0,-0.196,0.337,-0.015,59.75,94.26,0
203322.0,0.072,-0.072,-0.058,-38.09,-128.62,0
203327.0,-0.167,0.052,-0.043,16.77,104.53,0
203332.0,0.07,-0.324,-0.173,-60.1,-157.98,0
203337.0,-0.162,0.256,-0.079,54.73,116.01,0
203342.0,0.113,-0.128,-0.084,-42.18,-126.66,0
203347.0,-0.155,0.244,-0.017,57.34,96.25,0
203352.0,0.06,-0.216,-0.141,-54.56,-156.93,0
203357.0,-0.155,0.179,-0.017,48.89,96.25,0
203362.0,0.036,-0.14,-0.12,-48.06,-163.16,0
203367.0,-0.222,0.066,-0.096,15.34,113.36,0
203372.0,0.053,-0.132,-0.132,-42.94,-158.09,0
203377.0,-0.194,0.105,-0.062,27.24,107.89,0
203382.0,0.125,0.004,-0.062,1.7,-116.58,0
203387.0,-0.258,0.054,-0.11,10.97,113.15,0
203392.0,0.202,-0.144,-0.031,-35.28,-98.85,0
203397.0,-0.194,0.09,-0.058,24.1,106.6,0
203402.0,0.051,-0.041,-0.139,-15.6,-159.98,0
203407.0,-0.074,0.062,-0.039,36.49,117.57,0
203412.0,0.17,-0.058,0.055,-17.98,-72.16,0
203417.0,-0.261,0.069,-0.051,14.53,100.97,0
203422.0,0.213,0.026,-0.005,6.86,-91.35,0
203427.0,-0.182,-0.005,0.048,-1.66,75.3,0
203432.0,0.24,0.007,0.031,1.55,-82.66,0
203437.0,-0.234,0.069,-0.098,15.15,112.79,0
203442.0,0.146,0.088,-0.003,30.98,-91.03,0
203447.0,-0.177,0.009,-0.01,2.89,93.18,0
203452.0,0.242,-0.07,-0.003,-16.13,-90.62,0
203457.0,-0.217,0.023,-0.062,5.88,106.03,0
203462.0,0.204,0.09,0.069,22.76,-71.26,0
203467.0,-0.191,-0.027,0.115,-6.9,59.04,0
203472.0,0.252,-0.022,0.014,-5.03,-86.79,0
203477.0,-0.229,-0.06,-0.091,-13.77,111.68,0
203482.0,0.178,0.109,0.062,30.21,-70.75,0
203487.0,-0.215,0.016,0.024,4.26,83.71,0
203492.0,0.297,-0.049,-0.007,-9.27,-91.43,0
203497.0,-0.246,-0.132,0.038,-27.97,81.21,0
203502.0,0.292,0.2,0.115,32.54,-68.59,0
203507.0,-0.253,-0.12,0.026,-25.29,84.12,0
203512.0,0.314,0.1,0.069,17.26,-77.57,0
203517.0,-0.246,-0.142,-0.027,-29.81,96.16,0
203522.0,0.24,0.294,0.1,48.5,-67.3,0
203527.0,-0.194,-0.223,-0.039,-48.53,101.26,0
203532.0,0.35,0.098,0.074,15.25,-78.06,0
203537.0,-0.22,-0.211,0.091,-41.62,67.57,0
203542.0,0.417,0.279,0.151,32.23,-70.14,0
203547.0,-0.201,-0.178,0.019,-41.41,84.62,0
203552.0,0.393,0.131,0.151,17.29,-69.04,0
203557.0,-0.289,-0.247,-0.039,-40.27,97.59,0
203562.0,0.225,0.294,0.019,52.41,-85.2,0
203567.0,-0.287,-0.147,-0.055,-26.66,100.91,0
203572.0,0.352,0.224,0.148,30.42,-67.19,0
203577.0,-0.241,-0.393,-0.029,-58.27,96.84,0
203582.0,0.364,0.325,0.124,40.17,-71.17,0
203587.0,-0.28,-0.302,0.038,-46.96,82.25,0
203592.0,0.328,0.37,0.019,48.4,-86.7,0
203597.0,-0.352,-0.326,-0.122,-41.23,109.19,0
203602.0,0.276,0.296,0.1,45.27,-70.01,0
203607.0,-0.28,-0.216,0.017,-37.64,86.62,0
203612.0,0.348,0.263,0.096,36.09,-74.63,0
203617.0,-0.258,-0.274,0.019,-46.58,85.81,0
203622.0,0.328,0.315,0.184,39.95,-60.72,0
203627.0,-0.237,-0.312,0.148,-48.16,57.94,0
203632.0,0.395,0.313,0.163,36.21,-67.65,0
203637.0,-0.337,-0.367,-0.055,-47.04,99.31,0
203642.0,0.357,0.402,0.088,47.51,-76.11,0
203647.0,-0.285,-0.353,-0.046,-50.74,99.13,0
203652.0,0.362,0.339,0.105,42.0,-73.81,0
203657.0,-0.328,-0.338,-0.096,-44.73,106.33,0
203662.0,0.381,0.473,0.167,48.68,-66.29,0
203667.0,-0.27,-0.417,0.014,-57.04,87.01,0
203672.0,0.405,0.33,0.155,37.24,-69.01,0
203677.0,-0.265,-0.432,0.088,-57.06,71.59,0
203682.0,0.35,0.471,0.208,49.16,-59.27,0
203687.0,-0.285,-0.422,0.005,-56.01,89.08,0
203692.0,0.379,0.43,0.16,46.3,-67.07,0
203697.0,-0.323,-0.479,-0.051,-55.73,98.89,0
203702.0,0.393,0.454,0.117,47.92,-73.41,0
203707.0,-0.301,-0.439,-0.029,-55.4,95.49,0
203712.0,0.381,0.392,0.196,42.45,-62.77,0
203717.0,-0.371,-0.446,-0.06,-49.9,99.21,0
203722.0,0.393,0.488,0.122,49.85,-72.77,0
203727.0,-0.299,-0.336,-0.019,-48.27,93.71,0
203732.0,0.292,0.272,0.1,41.37,-71.07,0
203737.0,-0.34,0.318,-0.046,42.84,97.67,0
203742.0,0.405,0.481,0.131,48.46,-72.02,0
203747.0,-0.292,-0.405,-0.034,-54.07,96.6,0
203752.0,0.355,0.375,0.105,45.4,-73.5,0
203757.0,-0.304,-0.527,-0.079,-59.24,104.63,0
203762.0,0.35,0.447,0.131,50.1,-69.41,0
203767.0,-0.325,-0.341,-0.12,-44.5,110.25,0
203772.0,0.288,0.363,0.112,49.63,-68.68,0
203777.0,0.024,0.375,0.067,79.27,-20.02,0
203782.0,0.369,0.461,0.052,51.06,-81.91,0
203787.0,-0.411,-0.365,-0.189,-38.83,114.72,0
203792.0,0.285,0.406,-0.039,54.68,-97.69,0
203797.0,-0.359,-0.554,0.024,-57.0,86.22,0
203802.0,0.302,0.512,-0.12,57.58,-111.66,0
203807.0,-0.27,-0.384,0.076,-53.81,74.21,0
203812.0,0.297,0.426,-0.07,54.34,-103.19,0
203817.0,-0.057,0.335,0.038,78.41,56.29,0
203822.0,0.345,0.495,-0.158,52.51,-114.63,0
203827.0,-0.33,-0.355,0.129,-45.05,68.64,0
203832.0,0.41,-0.353,-0.091,-40.02,-102.55,0
203837.0,-0.383,0.356,-0.07,42.47,100.32,0
203842.0,0.405,-0.4,-0.137,-43.13,-108.65,0
203847.0,-0.277,0.366,0.088,51.48,72.33,0
203852.0,0.328,-0.317,-0.161,-40.9,-116.07,0
203857.0,-0.083,0.402,0.014,78.11,80.39,0
203862.0,0.443,-0.338,-0.031,-37.27,-94.05,0
203867.0,-0.366,0.275,0.096,35.99,75.37,0
203872.0,0.245,-0.317,-0.175,-46.48,-125.58,0
203877.0,-0.086,0.349,-0.046,74.43,118.06,0
203882.0,0.024,-0.286,0.014,-84.37,-59.87,0
203887.0,-0.059,0.236,0.119,60.55,26.46,0
203892.0,0.046,-0.302,-0.144,-63.45,-162.31,0
203897.0,-0.115,0.373,0.048,71.6,67.41,0
203902.0,0.067,-0.326,-0.019,-77.86,-106.04,0
203907.0,-0.093,0.263,0.028,69.69,72.96,0
203912.0,0.024,-0.29,-0.074,-74.9,-161.9,0
203917.0,-0.038,0.351,0.112,71.36,18.65,0
203922.0,0.063,-0.278,-0.01,-77.17,-98.9,0
203927.0,-0.086,0.277,0.043,70.91,63.46,0
203932.0,0.118,-0.214,0.033,-60.21,-74.21,0
203937.0,-0.112,0.277,0.024,67.53,78.06,0
203942.0,0.125,-0.262,-0.084,-60.08,-123.93,0
203947.0,-0.143,0.143,0.091,40.14,57.65,0
203952.0,0.096,-0.166,-0.015,-59.61,-98.63,0
203957.0,-0.11,0.284,-0.053,66.8,115.74,0
203962.0,0.13,-0.214,-0.046,-57.24,-109.42,0
203967.0,-0.103,0.162,0.11,47.17,43.02,0
203972.0,0.199,-0.254,0.052,-51.02,-75.25,0
203977.0,-0.115,0.236,0.036,63.1,72.7,0
203982.0,0.197,-0.13,0.131,-28.77,-56.25,0
203987.0,-0.067,0.109,0.155,32.93,23.21,0
203992.0,0.18,-0.135,-0.01,-36.78,-93.12,0
203997.0,-0.129,0.141,0.038,46.3,73.54,0
204002.0,0.225,-0.07,0.112,-15.55,-63.52,0
204007.0,-0.134,0.066,0.064,24.11,64.28,0
204012.0,0.257,-0.092,-0.01,-19.64,-92.19,0
204017.0,-0.122,0.174,0.112,46.44,47.3,0
204022.0,0.185,-0.063,0.069,-17.68,-69.47,0
204027.0,-0.153,0.078,0.021,26.93,82.06,0
204032.0,0.288,-0.132,0.086,-23.78,-73.37,0
204037.0,-0.083,0.141,0.136,41.36,31.47,0
204042.0,0.202,-0.01,0.069,-2.74,-71.05,0
204047.0,-0.107,0.059,0.131,19.24,39.24,0
204052.0,0.34,-0.056,0.213,-7.9,-57.98,0
204057.0,-0.095,0.028,0.055,14.33,60.1,0
204062.0,0.292,0.002,0.127,0.32,-66.59,0
204067.0,-0.112,0.064,0.194,15.96,30.07,0
204072.0,0.326,-0.037,0.184,-5.58,-60.54,0
204077.0,-0.165,0.04,0.069,12.63,67.22,0
204082.0,0.254,0.136,0.069,27.28,-74.77,0
204087.0,-0.179,0.002,0.043,0.55,76.55,0
204092.0,0.333,-0.049,0.11,-7.87,-71.75,0
204097.0,-0.225,-0.029,-0.065,-7.16,106.11,0
204102.0,0.216,0.141,0.081,31.37,-69.4,0
204107.0,-0.191,0.011,0.033,3.34,80.12,0
204112.0,0.273,0.052,0.057,10.55,-78.18,0
204117.0,-0.285,-0.003,-0.0,-0.61,90.05,0
204122.0,0.285,0.05,0.086,9.46,-73.23,0
204127.0,-0.184,-0.084,0.069,-23.25,69.39,0
204132.0,0.374,-0.041,0.108,-6.07,-73.96,0
204137.0,-0.232,-0.111,0.021,-25.44,84.75,0
204142.0,0.242,0.289,0.1,47.79,-67.5,0
204147.0,-0.138,-0.159,0.091,-43.78,56.76,0
204152.0,0.237,0.126,0.086,26.57,-70.1,0
204157.0,-0.237,-0.173,-0.017,-36.1,94.11,0
204162.0,0.35,0.189,0.143,26.49,-67.72,0
204167.0,-0.237,-0.183,0.088,-35.86,69.53,0
204172.0,0.269,0.145,0.045,28.1,-80.44,0
204177.0,-0.206,-0.159,0.045,-37.02,77.58,0
204182.0,0.314,0.217,0.129,32.61,-67.66,0
204187.0,-0.184,-0.233,0.024,-51.46,82.66,0
204192.0,0.34,0.253,0.127,34.88,-69.59,0
204197.0,-0.234,-0.192,-0.01,-39.34,92.4,0
204202.0,0.369,0.299,0.165,36.45,-65.92,0
204207.0,-0.229,-0.271,0.069,-48.53,73.22,0
204212.0,0.326,0.272,0.139,37.55,-66.96,0
204217.0,-0.282,-0.305,-0.072,-46.3,104.33,0
204222.0,0.374,0.325,0.127,39.46,-71.29,0
204227.0,-0.28,-0.281,0.062,-44.42,77.5,0
204232.0,0.357,0.253,0.134,33.57,-69.46,0
204237.0,-0.215,-0.233,0.038,-46.83,79.96,0
204242.0,0.331,0.308,0.196,38.71,-59.34,0
204247.0,-0.263,-0.326,0.028,-50.97,83.82,0
204252.0,0.302,0.315,-0.0,46.24,-90.05,0
204257.0,-0.253,-0.288,-0.058,-47.93,102.83,0
204262.0,0.386,0.406,0.189,43.41,-63.92,0
204267.0,-0.335,-0.326,0.057,-43.85,80.3,0
204272.0,0.412,0.32,0.175,35.58,-67.05,0
204277.0,-0.263,-0.365,0.028,-54.04,83.82,0
204282.0,0.367,0.428,0.153,47.12,-67.35,0
204287.0,-0.332,-0.412,-0.067,-50.57,101.44,0
204292.0,0.422,0.327,0.141,36.36,-71.51,0
204297.0,-0.289,-0.405,0.009,-54.46,88.15,0
204302.0,0.395,0.452,0.163,46.58,-67.65,0
204307.0,-0.289,-0.329,-0.019,-48.58,93.83,0
204312.0,0.355,0.351,0.148,42.42,-67.33,0
204317.0,-0.241,-0.511,-0.0,-64.7,90.06,0
204322.0,0.348,0.485,0.112,53.04,-72.1,0
204327.0,-0.361,-0.305,-0.113,-38.85,107.34,0
204332.0,0.391,0.339,0.158,38.85,-68.01,0
204337.0,-0.287,0.224,-0.048,37.65,99.52,0
204342.0,0.41,0.447,0.119,46.32,-73.75,0
204347.0,-0.301,-0.355,-0.043,-49.39,98.19,0
204352.0,0.458,0.402,0.309,36.04,-56.01,0
204357.0,-0.275,-0.525,0.036,-62.16,82.61,0
204362.0,0.328,0.476,0.048,55.11,-81.75,0
204367.0,-0.232,-0.436,-0.055,-61.36,103.42,0
204372.0,0.391,0.438,0.239,43.68,-58.52,0
204377.0,-0.028,0.354,-0.127,69.78,167.44,0
204382.0,0.443,0.538,0.105,49.74,-76.66,0
204387.0,-0.253,-0.355,0.028,-54.31,83.58,0
204392.0,0.376,0.404,-0.256,41.58,-124.27,0
204397.0,-0.373,-0.53,-0.103,-53.84,105.46,0
204402.0,0.441,0.414,-0.125,42.07,-105.8,0
204407.0,-0.258,-0.381,0.108,-53.74,67.39,0
204412.0,0.369,0.387,-0.223,41.92,-121.13,0
204417.0,-0.016,0.313,-0.024,84.67,145.92,0
204422.0,0.4,0.5,-0.053,51.07,-97.53,0
204427.0,-0.354,-0.338,0.182,-40.37,62.82,0
204432.0,0.333,0.358,-0.173,43.69,-117.39,0
204437.0,-0.402,0.414,0.014,45.81,87.99,0
204442.0,0.429,-0.381,-0.039,-41.52,-95.13,0
204447.0,-0.316,0.301,0.05,43.29,80.99,0
204452.0,0.314,-0.369,-0.197,-44.91,-122.04,0
204457.0,-0.045,0.378,-0.046,80.35,135.4,0
204462.0,0.427,-0.305,-0.079,-35.08,-100.52,0
204467.0,-0.258,0.363,0.11,52.32,66.94,0
204472.0,0.314,-0.345,-0.108,-46.13,-108.97,0
204477.0,-0.39,0.344,0.036,41.32,84.77,0
204482.0,0.022,-0.312,-0.122,-68.27,-169.83,0
204487.0,-0.079,0.306,0.048,73.27,58.78,0
204492.0,0.015,-0.408,-0.051,-82.64,-163.71,0
204497.0,-0.076,0.339,0.074,72.62,45.85,0
204502.0,0.02,-0.314,-0.091,-73.47,-167.9,0
204507.0,-0.038,0.323,0.038,80.54,44.88,0
204512.0,0.091,-0.386,-0.007,-76.64,-94.64,0
204517.0,-0.012,0.399,0.074,79.38,8.89,0
204522.0,0.089,-0.3,-0.048,-71.36,-118.4,0
204527.0,-0.016,0.277,0.175,57.68,5.35,0
204532.0,0.087,-0.374,0.086,-71.94,-45.21,0
204537.0,-0.088,0.363,-0.019,76.04,102.4,0
204542.0,0.075,-0.173,-0.012,-66.39,-99.29,0
204547.0,-0.031,0.272,0.184,55.57,9.47,0
204552.0,0.106,-0.369,-0.048,-72.54,-114.47,0
204557.0,-0.129,0.26,-0.062,61.18,115.87,0
204562.0,0.043,-0.166,-0.007,-75.1,-99.68,0
204567.0,-0.076,0.232,0.122,58.18,32.02,0
204572.0,0.082,-0.202,-0.125,-53.52,-146.74,0
204577.0,-0.16,0.248,-0.048,56.07,106.74,0
204582.0,0.099,-0.183,0.024,-60.96,-76.48,0
204587.0,-0.107,0.258,0.067,63.89,58.11,0
204592.0,0.07,-0.317,-0.113,-67.27,-148.23,0
204597.0,-0.174,0.277,-0.072,55.75,112.45,0
204602.0,0.094,-0.228,0.007,-67.6,-85.76,0
204607.0,-0.155,0.256,0.074,56.06,64.52,0
204612.0,0.13,-0.25,-0.07,-59.47,-118.25,0
204617.0,-0.11,0.279,0.069,65.1,57.77,0
204622.0,0.146,-0.204,0.028,-53.84,-78.99,0
204627.0,-0.112,0.172,0.031,55.89,74.6,0
204632.0,0.142,-0.187,-0.07,-49.89,-116.19,0
204637.0,-0.103,0.205,0.017,63.16,80.85,0
204642.0,0.163,-0.216,0.052,-51.58,-72.19,0
204647.0,-0.079,0.196,0.086,59.24,42.45,0
204652.0,0.209,-0.032,0.05,-8.42,-76.52,0
204657.0,-0.174,0.153,0.043,40.36,76.19,0
204662.0,0.269,-0.19,0.04,-34.95,-81.43,0
204667.0,-0.165,0.014,0.088,4.2,61.8,0
204672.0,0.216,-0.106,0.069,-25.06,-72.23,0
204677.0,-0.107,0.193,0.048,58.72,66.06,0
204682.0,0.276,-0.08,0.122,-14.8,-66.16,0
204687.0,-0.162,0.052,0.115,14.67,54.77,0
204692.0,0.302,-0.029,0.076,-5.38,-75.81,0
204697.0,-0.165,0.138,0.05,38.75,73.11,0
204702.0,0.264,0.007,0.11,1.31,-67.38,0
204707.0,-0.158,-0.084,0.091,-24.9,60.07,0
204712.0,0.297,-0.008,0.072,-1.47,-76.46,0
204717.0,-0.148,0.131,0.04,40.49,74.71,0
204722.0,0.245,0.112,0.069,23.76,-74.21,0
204727.0,-0.117,-0.01,0.153,-3.04,37.39,0
204732.0,0.331,-0.156,0.208,-21.79,-57.83,0
204737.0,-0.115,0.011,0.06,5.02,62.5,0
204742.0,0.288,0.162,0.024,29.33,-85.29,0
204747.0,-0.165,0.035,0.146,9.11,48.5,0
204752.0,0.383,-0.001,0.222,-0.08,-59.89,0
204757.0,-0.227,-0.06,0.036,-14.75,81.07,0
204762.0,0.276,0.15,0.098,27.17,-70.45,0
204767.0,-0.138,-0.142,0.112,-38.52,50.96,0
204772.0,0.338,0.007,0.108,1.06,-72.36,0
204777.0,-0.225,-0.125,0.019,-29.03,85.19,0
204782.0,0.4,0.239,0.196,28.18,-63.9,0
204787.0,-0.246,0.007,0.131,1.34,61.9,0
204792.0,0.36,0.102,0.081,15.51,-77.28,0
204797.0,-0.225,-0.204,-0.048,-41.62,102.09,0
204802.0,0.297,0.174,0.158,27.36,-62.04,0
204807.0,-0.196,-0.151,0.1,-34.53,62.89,0
204812.0,0.36,0.107,0.117,15.81,-71.96,0
204817.0,-0.21,-0.216,0.072,-44.21,71.2,0
204822.0,0.336,0.368,0.198,43.35,-59.4,0
204827.0,-0.215,-0.173,0.103,-35.98,64.47,0
204832.0,0.395,0.212,0.11,27.37,-74.47,0
204837.0,-0.232,-0.293,0.028,-51.41,82.99,0
204842.0,0.362,0.299,0.127,37.91,-70.71,0
204847.0,-0.253,-0.288,0.062,-47.82,76.25,0
204852.0,0.355,0.268,0.127,35.38,-70.35,0
204857.0,-0.287,-0.173,0.021,-31.02,85.75,0
204862.0,0.336,0.347,0.119,44.21,-70.4,0
204867.0,-0.229,-0.319,0.038,-53.91,80.58,0
204872.0,0.34,0.229,0.179,30.78,-62.22,0
204877.0,-0.263,-0.324,-0.082,-49.63,107.25,0
204882.0,0.355,0.421,0.112,48.51,-72.44,0
204887.0,-0.258,-0.283,0.021,-47.55,85.28,0
204892.0,0.376,0.265,0.127,33.73,-71.4,0
204897.0,-0.241,-0.343,0.031,-54.64,82.71,0
204902.0,0.374,0.402,0.215,42.95,-60.07,0
204907.0,-0.292,-0.23,0.06,-37.75,78.45,0
204912.0,0.328,0.26,0.153,35.7,-65.02,0
204917.0,-0.258,-0.362,0.009,-54.5,87.93,0
204922.0,0.41,0.502,0.165,48.66,-68.07,0
204927.0,-0.285,-0.357,-0.005,-51.47,91.01,0
204932.0,0.451,0.315,0.208,32.44,-65.21,0
204937.0,-0.306,0.227,-0.122,34.53,111.79,0
204942.0,0.393,0.545,0.1,53.35,-75.68,0
204947.0,-0.229,-0.403,0.05,-59.76,77.7,0
204952.0,0.381,0.351,0.146,40.73,-69.06,0
204957.0,-0.335,-0.537,-0.036,-57.91,96.16,0
204962.0,0.381,0.517,0.091,52.82,-76.61,0
204967.0,-0.323,-0.348,0.005,-47.13,89.19,0
204972.0,0.336,0.387,0.096,47.98,-74.11,0
204977.0,0.036,0.299,0.04,79.68,-41.9,0
204982.0,0.434,0.464,0.189,44.43,-66.47,0
204987.0,-0.352,-0.379,-0.029,-47.05,94.71,0
204992.0,0.379,0.399,-0.168,43.94,-113.9,0
204997.0,-0.285,-0.537,-0.089,-60.97,107.34,0
205002.0,0.434,0.464,-0.177,44.71,-112.25,0
205007.0,-0.306,-0.381,0.043,-50.98,82.03,0
205012.0,0.364,0.478,-0.158,50.29,-113.48,0
205017.0,0.051,0.337,0.026,80.4,-62.75,0
205022.0,0.386,0.495,-0.149,50.12,-111.07,0
205027.0,-0.38,-0.324,0.139,-38.66,69.97,0
205032.0,0.314,0.411,-0.084,51.67,-104.98,0
205037.0,-0.364,-0.549,0.052,-56.21,81.79,0
205042.0,0.376,-0.338,-0.108,-40.83,-106.01,0
205047.0,-0.385,0.426,0.064,47.46,80.5,0
205052.0,0.343,-0.398,-0.108,-47.92,-107.49,0
205057.0,0.034,0.33,-0.0,84.13,-90.4,0
205062.0,0.374,-0.36,-0.153,-41.67,-112.32,0
205067.0,-0.328,0.337,0.122,43.95,69.6,0
205072.0,0.307,-0.408,-0.07,-52.34,-102.79,0
205077.0,-0.337,0.406,-0.024,50.24,94.1,0
205082.0,0.005,-0.312,-0.175,-60.69,-178.3,0
205087.0,-0.043,0.373,0.074,77.1,29.99,0
205092.0,-0.045,-0.412,-0.156,-68.53,163.86,0
205097.0,-0.098,0.368,-0.101,69.12,135.87,0
205102.0,-0.081,-0.372,-0.055,-75.22,124.32,0
205107.0,-0.004,0.416,0.091,77.68,2.77,0
205112.0,-0.014,-0.365,-0.082,-77.2,170.29,0
205117.0,-0.069,0.323,-0.0,77.92,90.2,0
205122.0,0.027,-0.372,-0.12,-71.71,-167.43,0
205127.0,-0.083,0.358,0.052,74.63,57.84,0
205132.0,0.01,-0.269,-0.024,-84.44,-157.58,0
205137.0,-0.057,0.339,-0.003,80.44,92.64,0
205142.0,0.005,-0.417,-0.096,-77.02,-176.91,0
205147.0,0.024,0.363,0.088,75.84,-15.4,0
205152.0,0.024,-0.384,-0.046,-82.31,-151.97,0
205157.0,-0.079,0.39,-0.022,78.17,105.49,0
205162.0,0.043,-0.331,-0.06,-77.37,-144.1,0
205167.0,-0.059,0.335,0.163,62.64,20.09,0
205172.0,0.113,-0.319,-0.077,-66.82,-124.24,0
205177.0,-0.122,0.299,-0.091,63.01,126.85,0
205182.0,0.051,-0.295,0.04,-77.61,-51.39,0
205187.0,-0.004,0.313,0.155,63.59,1.62,0
205192.0,0.032,-0.29,-0.062,-76.45,-153.23,0
205197.0,-0.1,0.378,-0.005,75.13,92.87,0
205202.0,0.111,-0.247,0.072,-61.96,-57.07,0
205207.0,-0.031,0.229,0.179,51.56,9.72,0
205212.0,0.072,-0.355,-0.027,-77.77,-110.2,0
205217.0,-0.117,0.366,-0.036,71.5,107.18,0
205222.0,0.048,-0.24,-0.031,-76.51,-123.01,0
205227.0,-0.146,0.248,0.052,58.07,70.2,0
205232.0,0.149,-0.247,-0.07,-56.39,-115.08,0
205237.0,-0.153,0.239,0.028,56.93,79.44,0
205242.0,0.118,-0.23,0.04,-61.63,-71.03,0
205247.0,-0.098,0.155,0.019,57.28,79.05,0
205252.0,0.077,-0.185,-0.027,-66.23,-109.04,0
205257.0,-0.076,0.198,0.1,57.54,37.23,0
205262.0,0.12,-0.087,0.026,-35.24,-77.74,0
205267.0,-0.076,0.155,0.105,50.05,35.95,0
205272.0,0.149,-0.166,0.045,-46.83,-73.09,0
205277.0,-0.107,0.181,0.064,55.38,59.04,0
205282.0,0.199,-0.166,0.026,-39.55,-82.53,0
205287.0,-0.105,0.145,0.131,40.84,38.6,0
205292.0,0.206,-0.13,0.05,-31.47,-76.37,0
205297.0,-0.117,0.047,0.033,21.24,74.11,0
205302.0,0.197,-0.116,0.019,-30.32,-84.51,0
205307.0,-0.158,0.148,0.098,38.54,58.15,0
205312.0,0.204,-0.013,0.081,-3.29,-68.3,0
205317.0,-0.165,0.117,0.038,34.6,76.99,0
205322.0,0.225,-0.154,0.069,-33.12,-72.94,0
205327.0,-0.16,0.03,0.084,9.59,62.43,0
205332.0,0.259,-0.08,0.048,-16.83,-79.58,0
205337.0,-0.143,0.2,-0.019,54.21,97.71,0
205342.0,0.221,-0.092,0.155,-18.75,-54.85,0
205347.0,-0.105,0.054,0.093,21.2,48.41,0
205352.0,0.297,-0.111,0.031,-20.34,-84.07,0
205357.0,-0.117,0.062,0.064,24.78,61.15,0
205362.0,0.259,0.071,0.153,13.32,-59.43,0
205367.0,-0.184,-0.07,0.05,-20.18,74.78,0
205372.0,0.362,-0.025,0.124,-3.68,-71.05,0
205377.0,-0.225,0.071,0.062,16.99,74.57,0
205382.0,0.309,0.114,0.131,18.78,-66.97,0
205387.0,-0.143,-0.044,0.119,-13.2,50.17,0
205392.0,0.348,-0.077,0.215,-10.7,-58.23,0
205397.0,-0.122,-0.025,0.055,-10.43,65.75,0
205402.0,0.29,0.069,0.117,12.4,-68.02,0
205407.0,-0.146,-0.053,0.086,-17.5,59.45,0
205412.0,0.372,0.054,0.23,7.1,-58.28,0
205417.0,-0.179,-0.118,0.11,-29.3,58.48,0
205422.0,0.352,0.153,0.117,22.34,-71.62,0
205427.0,-0.217,-0.123,0.084,-27.78,68.98,0
205432.0,0.357,0.153,0.146,21.58,-67.79,0
205437.0,-0.253,-0.089,-0.01,-19.39,92.22,0
205442.0,0.352,0.086,0.103,13.12,-73.75,0
205447.0,-0.184,-0.118,0.081,-30.4,66.19,0
205452.0,0.3,0.153,0.124,25.19,-67.48,0
205457.0,-0.186,-0.077,0.031,-22.24,80.59,0
205462.0,0.316,0.162,0.177,24.1,-60.79,0
205467.0,-0.17,-0.238,0.141,-47.14,50.26,0
205472.0,0.383,0.167,0.103,22.81,-75.01,0
205477.0,-0.241,-0.159,-0.031,-33.09,97.4,0
205482.0,0.355,0.265,0.167,34.06,-64.74,0
205487.0,-0.28,-0.214,0.115,-35.26,67.71,0
205492.0,0.352,0.217,0.038,31.51,-83.83,0
205497.0,-0.217,-0.219,0.005,-45.13,88.8,0
205502.0,0.352,0.282,0.16,36.07,-65.55,0
205507.0,-0.234,-0.262,0.028,-47.95,83.06,0
205512.0,0.357,0.26,0.136,34.26,-69.12,0
205517.0,-0.217,-0.271,0.076,-49.64,70.65,0
205522.0,0.333,0.351,0.129,44.51,-68.83,0
205527.0,-0.328,-0.276,-0.005,-40.11,90.88,0
205532.0,0.398,0.354,0.141,39.96,-70.48,0
205537.0,-0.244,0.27,-0.036,47.6,98.43,0
205542.0,0.374,0.404,0.175,44.39,-64.98,0
205547.0,-0.241,-0.3,0.06,-50.34,76.13,0
205552.0,0.439,0.296,0.198,31.61,-65.65,0
205557.0,-0.239,-0.343,0.076,-53.81,72.28,0
205562.0,0.283,0.399,0.021,54.6,-85.69,0
205567.0,-0.268,-0.305,-0.034,-48.47,97.19,0
205572.0,0.367,0.315,0.129,39.05,-70.61,0
205577.0,0.046,0.265,-0.036,77.57,-128.23,0
205582.0,0.424,0.411,0.155,42.31,-69.88,0
205587.0,-0.234,-0.274,0.019,-49.34,85.38,0
205592.0,0.376,0.325,-0.218,36.77,-120.1,0
205597.0,-0.287,-0.374,-0.079,-51.5,105.44,0
205602.0,0.379,0.449,-0.168,47.34,-113.9,0
205607.0,-0.285,-0.42,0.072,-55.04,75.88,0
205612.0,0.403,0.394,-0.254,39.64,-122.25,0
205617.0,0.012,0.32,-0.067,77.94,-169.58,0
205622.0,0.407,0.49,-0.187,47.56,-114.65,0
205627.0,-0.287,-0.324,0.017,-48.42,86.7,0
205632.0,0.443,0.402,-0.237,38.61,-118.16,0
205637.0,-0.32,0.363,-0.007,48.58,91.33,0
205642.0,0.448,-0.396,-0.146,-40.01,-108.08,0
205647.0,-0.277,0.335,0.081,49.18,73.69,0
205652.0,0.364,-0.396,-0.17,-44.54,-115.04,0
205657.0,0.055,0.416,0.052,79.6,-46.61,0
205662.0,0.376,-0.374,-0.122,-43.4,-108.01,0
205667.0,-0.344,0.39,0.124,46.78,70.16,0
205672.0,0.273,-0.42,-0.141,-53.74,-117.37,0
205677.0,-0.392,0.332,-0.012,40.24,91.78,0
205682.0,-0.057,-0.384,-0.177,-64.1,162.17,0
205687.0,-0.024,0.337,0.096,73.72,13.84,0
205692.0,-0.158,-0.321,-0.175,-53.77,137.99,0
205697.0,-0.019,0.356,-0.108,72.89,170.15,0
205702.0,-0.052,-0.336,-0.137,-66.45,159.07,0
205707.0,-0.055,0.385,0.06,78.13,42.52,0
205712.0,-0.016,-0.472,-0.07,-81.38,166.78,0
205717.0,-0.021,0.303,0.064,77.41,18.18,0
205722.0,-0.079,-0.333,-0.156,-62.37,153.24,0
205727.0,-0.014,0.402,0.096,76.48,8.32,0
205732.0,-0.052,-0.403,-0.053,-79.54,135.35,0
205737.0,-0.002,0.306,0.036,83.34,3.2,0
205742.0,0.027,-0.341,-0.058,-79.42,-155.14,0
205747.0,0.022,0.387,0.072,79.06,-17.04,0
205752.0,-0.014,-0.36,-0.055,-80.99,165.83,0
205757.0,0.034,0.33,0.052,79.28,-32.9,0
205762.0,-0.014,-0.403,-0.101,-75.82,172.11,0
205767.0,-0.091,0.368,0.088,71.03,45.72,0
205772.0,-0.004,-0.312,-0.086,-74.49,177.09,0
205777.0,-0.033,0.33,0.057,78.66,30.06,0
205782.0,-0.009,-0.396,-0.051,-82.61,169.7,0
205787.0,0.008,0.38,0.134,70.57,-3.24,0
205792.0,0.055,-0.353,-0.015,-80.76,-104.75,0
205797.0,-0.052,0.296,-0.051,76.21,134.02,0
205802.0,0.075,-0.374,-0.027,-78.05,-109.6,0
205807.0,-0.031,0.294,0.136,64.58,12.71,0
205812.0,0.029,-0.257,-0.115,-65.18,-165.8,0
205817.0,-0.117,0.445,-0.067,73.13,119.92,0
205822.0,0.082,-0.345,0.005,-76.66,-86.82,0
205827.0,-0.043,0.251,0.119,63.16,19.67,0
205832.0,-0.031,-0.357,-0.132,-69.24,166.89,0
205837.0,-0.071,0.349,0.021,77.94,73.39,0
205842.0,0.091,-0.221,0.007,-67.47,-85.65,0
205847.0,-0.119,0.143,0.05,47.87,67.25,0
205852.0,0.106,-0.326,-0.074,-68.38,-125.15,0
205857.0,-0.143,0.399,-0.0,70.26,90.1,0
205862.0,0.101,-0.149,-0.012,-55.7,-96.9,0
205867.0,-0.067,0.248,0.131,59.32,26.88,0
205872.0,0.111,-0.398,-0.003,-74.48,-91.36,0
205877.0,-0.071,0.229,-0.003,72.68,92.11,0
205882.0,0.151,-0.168,0.012,-47.96,-85.56,0
205887.0,-0.076,0.308,0.177,57.99,23.3,0
205892.0,0.161,-0.257,0.098,-53.75,-58.66,0
205897.0,-0.074,0.22,0.081,63.46,42.29,0
205902.0,0.175,-0.156,-0.043,-40.89,-103.89,0
205907.0,-0.064,0.196,0.098,59.1,33.27,0
205912.0,0.144,-0.221,0.091,-52.38,-57.79,0
205917.0,-0.177,0.186,-0.022,46.26,97.03,0
205922.0,0.18,-0.125,0.026,-34.53,-81.75,0
205927.0,-0.182,0.224,0.103,47.09,60.5,0
205932.0,0.199,-0.216,-0.012,-47.29,-93.51,0
205937.0,-0.158,0.16,-0.029,44.91,100.41,0
205942.0,0.202,-0.151,0.074,-35.21,-69.84,0
205947.0,-0.036,0.141,0.215,32.81,9.37,0
205952.0,0.273,-0.151,0.05,-28.59,-79.63,0
205957.0,-0.019,0.074,0.108,33.99,9.9,0
205962.0,0.197,-0.022,0.098,-5.77,-63.54,0
205967.0,-0.184,0.136,0.062,34.98,71.37,0
205972.0,0.292,-0.013,0.091,-2.36,-72.76,0
205977.0,-0.143,0.062,0.079,20.65,61.19,0
205982.0,0.202,-0.077,0.086,-19.42,-66.9,0
205987.0,-0.256,0.078,-0.031,16.92,96.99,0
205992.0,0.307,-0.034,0.036,-6.31,-83.37,0
205997.0,-0.21,0.088,0.06,21.92,74.17,0
206002.0,0.228,-0.003,0.06,-0.74,-75.34,0
206007.0,-0.179,0.019,0.081,5.38,65.63,0
206012.0,0.326,-0.077,0.117,-12.57,-70.25,0
206017.0,-0.174,0.047,0.04,14.78,76.94,0
206022.0,0.194,0.04,0.093,10.53,-64.39,0
206027.0,-0.126,0.038,0.151,10.84,40.03,0
206032.0,0.36,0.071,0.182,10.02,-63.19,0
206037.0,-0.179,-0.056,0.033,-17.0,79.48,0
206042.0,0.273,0.054,0.129,10.21,-64.73,0
206047.0,-0.141,-0.092,0.103,-27.72,53.9,0
206052.0,0.297,0.093,0.064,16.96,-77.78,0
206057.0,-0.198,-0.044,-0.017,-12.39,94.9,0
206062.0,0.309,0.095,0.127,15.89,-67.73,0
206067.0,-0.179,-0.108,0.175,-23.43,45.75,0
206072.0,0.35,0.042,0.129,6.49,-69.76,0
206077.0,-0.342,0.035,-0.113,5.59,108.25,0
206082.0,0.295,0.186,0.067,31.61,-77.24,0
206087.0,-0.122,-0.171,0.21,-35.06,30.04,0
206092.0,0.312,0.023,0.153,3.84,-63.85,0
206097.0,-0.191,-0.128,-0.074,-31.87,111.28,0
206102.0,0.314,0.265,0.146,37.44,-65.09,0
206107.0,-0.222,-0.197,0.088,-39.47,68.32,0
206112.0,0.281,0.16,-0.024,29.57,-94.93,0
206117.0,-0.277,-0.18,-0.098,-31.48,109.54,0
206122.0,0.4,0.349,0.191,38.19,-64.45,0
206127.0,-0.265,-0.254,0.088,-42.29,71.59,0
206132.0,0.376,0.114,0.129,16.03,-71.07,0
206137.0,-0.201,0.239,0.091,47.31,65.67,0
206142.0,0.364,0.378,0.191,42.54,-62.3,0
206147.0,-0.198,-0.25,0.021,-51.37,83.87,0
206152.0,0.333,0.253,0.127,35.38,-69.19,0
206157.0,-0.191,-0.379,0.098,-60.46,62.87,0
206162.0,0.372,0.426,0.141,46.96,-69.21,0
206167.0,-0.265,-0.211,-0.058,-37.89,102.27,0
206172.0,0.393,0.315,0.151,36.84,-69.04,0
206177.0,0.046,0.196,-0.046,71.68,-134.9,0
206182.0,0.357,0.411,0.103,47.89,-73.95,0
206187.0,-0.258,-0.207,0.028,-38.49,83.7,0
206192.0,0.369,0.303,-0.139,37.57,-110.65,0
206197.0,-0.299,-0.403,-0.015,-53.4,92.8,0
206202.0,0.355,0.315,-0.187,38.19,-117.79,0
206207.0,-0.268,-0.259,0.093,-42.44,70.82,0
206212.0,0.374,0.399,-0.187,43.68,-116.57,0
206217.0,0.041,0.157,-0.072,62.2,-150.3,0
206222.0,0.388,0.397,-0.209,42.0,-118.24,0
206227.0,-0.265,-0.381,0.115,-52.83,66.63,0
206232.0,0.407,0.361,-0.189,38.77,-114.93,0
206237.0,-0.296,0.208,-0.101,33.55,108.78,0
206242.0,0.391,-0.391,-0.199,-41.72,-116.99,0
206247.0,-0.292,0.335,0.045,48.58,81.18,0
206252.0,0.424,-0.221,-0.177,-25.66,-112.7,0
206257.0,0.055,0.279,-0.106,66.89,-152.29,0
206262.0,0.369,-0.388,-0.163,-43.91,-113.83,0
206267.0,-0.253,0.272,0.067,46.1,75.23,0
206272.0,0.312,-0.319,-0.151,-42.65,-115.86,0
206277.0,-0.385,0.344,0.009,41.78,88.61,0
206282.0,-0.074,-0.41,-0.098,-73.3,143.12,0
206287.0,0.043,0.342,0.11,70.92,-21.59,0
206292.0,-0.215,-0.36,-0.173,-52.53,128.75,0
206297.0,0.024,0.457,0.024,85.74,-45.76,0
206302.0,-0.071,-0.369,-0.216,-58.4,161.68,0
206307.0,0.008,0.193,0.062,72.09,-6.97,0
206312.0,-0.148,-0.4,-0.192,-58.83,142.33,0
206317.0,-0.007,0.38,-0.06,80.96,173.56,0
206322.0,-0.201,-0.23,-0.302,-32.45,146.38,0
206327.0,0.034,0.294,0.033,80.81,-45.54,0
206332.0,-0.213,-0.487,-0.151,-61.81,125.39,0
206337.0,-0.069,0.347,-0.072,73.93,136.23,0
206342.0,-0.045,-0.25,-0.192,-51.72,166.77,0
206347.0,-0.016,0.387,0.043,83.24,20.89,0
206352.0,-0.036,-0.508,-0.101,-78.12,160.59,0
206357.0,-0.024,0.282,-0.005,85.12,102.05,0
206362.0,-0.016,-0.286,-0.031,-82.94,152.45,0
206367.0,-0.04,0.483,0.098,77.63,22.37,0
206372.0,-0.05,-0.324,-0.161,-62.55,162.75,0
206377.0,0.029,0.212,0.088,66.35,-18.25,0
206382.0,0.015,-0.42,0.033,-85.04,-23.92,0
206387.0,0.034,0.473,0.108,76.61,-17.51,0
206392.0,-0.083,-0.326,-0.149,-62.41,150.71,0
206397.0,-0.047,0.241,-0.0,78.86,90.29,0
206402.0,-0.002,-0.506,-0.151,-73.37,179.24,0
206407.0,-0.095,0.438,0.031,77.09,72.05,0
206412.0,-0.062,-0.235,-0.153,-54.88,158.05,0
206417.0,-0.033,0.361,0.007,84.64,78.16,0
206422.0,0.091,-0.47,0.017,-78.82,-79.75,0
206427.0,-0.033,0.277,0.088,71.2,20.55,0
206432.0,0.01,-0.338,-0.084,-75.95,-173.23,0
206437.0,-0.024,0.476,-0.027,85.73,138.46,0
206442.0,0.075,-0.362,-0.022,-77.89,-106.28,0
206447.0,-0.074,0.246,0.088,64.92,39.88,0
206452.0,-0.002,-0.3,-0.139,-65.12,179.18,0
206457.0,-0.1,0.438,-0.036,76.32,109.85,0
206462.0,0.022,-0.271,-0.024,-83.13,-137.77,0
206467.0,-0.021,0.196,0.155,51.29,7.75,0
206472.0,0.003,-0.412,-0.101,-76.26,-178.41,0
206477.0,-0.098,0.464,-0.01,78.04,95.73,0
206482.0,0.07,-0.197,0.012,-70.23,-80.46,0
206487.0,-0.117,0.287,0.117,60.01,44.96,0
206492.0,0.142,-0.391,-0.036,-69.49,-104.32,0
206497.0,-0.028,0.347,0.036,82.51,38.45,0
206502.0,0.089,-0.18,0.002,-63.71,-88.61,0
206507.0,-0.069,0.177,0.105,54.54,33.3,0
206512.0,0.142,-0.422,0.036,-70.91,-75.86,0
206517.0,-0.002,0.318,0.129,67.9,0.89,0
206522.0,0.132,-0.149,0.045,-46.88,-71.09,0
206527.0,-0.15,0.325,0.091,61.6,58.9,0
206532.0,0.204,-0.276,0.057,-52.5,-74.32,0
206537.0,-0.107,0.105,0.076,38.48,54.57,0
206542.0,0.139,-0.195,-0.019,-54.15,-97.93,0
206547.0,-0.153,0.251,0.055,57.08,70.26,0
206552.0,0.204,-0.089,0.098,-21.53,-64.35,0
206557.0,-0.103,0.169,0.11,48.41,43.02,0
206562.0,0.154,-0.228,-0.048,-54.78,-107.39,0
206567.0,-0.091,0.212,0.16,49.1,29.49,0
206572.0,0.156,-0.084,0.014,-28.32,-84.83,0
206577.0,-0.117,0.289,0.067,65.02,60.26,0
206582.0,0.24,-0.25,0.136,-42.15,-60.4,0
206587.0,-0.045,0.098,0.179,27.81,14.11,0
206592.0,0.211,-0.168,0.055,-37.65,-75.44,0
206597.0,-0.04,0.179,0.064,66.99,32.04,0
206602.0,0.154,-0.07,0.069,-22.58,-65.75,0
206607.0,-0.165,0.04,0.05,13.09,73.11,0
206612.0,0.273,-0.053,-0.007,-11.03,-91.56,0
206617.0,-0.196,0.177,-0.022,41.84,96.34,0
206622.0,0.199,-0.068,0.012,-18.74,-86.63,0
206627.0,-0.126,0.083,0.122,25.33,46.07,0
206632.0,0.225,-0.149,0.06,-32.59,-75.19,0
206637.0,-0.177,0.064,0.024,19.74,82.36,0
206642.0,0.319,0.028,0.108,4.77,-71.37,0
206647.0,-0.158,-0.01,0.153,-2.66,45.85,0
206652.0,0.393,-0.058,0.203,-7.48,-62.65,0
206657.0,-0.148,0.045,0.048,16.09,72.16,0
206662.0,0.259,0.121,0.124,22.92,-64.37,0
206667.0,-0.134,0.04,0.179,10.16,36.7,0
206672.0,0.211,-0.106,0.081,-25.11,-68.97,0
206677.0,-0.153,-0.003,0.017,-1.13,83.83,0
206682.0,0.221,0.148,0.017,33.74,-85.72,0
206687.0,-0.179,0.054,0.072,15.75,68.22,0
206692.0,0.388,-0.065,0.151,-8.91,-68.8,0
206697.0,-0.201,-0.044,-0.108,-10.86,118.28,0
206702.0,0.319,0.189,0.129,28.72,-67.96,0
206707.0,-0.196,-0.025,0.139,-5.85,54.72,0
206712.0,0.338,0.038,0.122,5.99,-70.17,0
206717.0,-0.225,-0.195,0.007,-40.88,88.23,0
206722.0,0.288,0.227,0.143,35.2,-63.5,0
206727.0,-0.227,-0.108,0.081,-24.2,70.33,0
206732.0,0.398,0.04,0.117,5.52,-73.6,0
206737.0,-0.215,0.172,-0.091,36.32,112.98,0
206742.0,0.367,0.296,0.254,33.6,-55.34,0
206747.0,-0.172,-0.108,0.165,-24.46,46.19,0
206752.0,0.364,0.071,0.074,10.84,-78.52,0
206757.0,-0.186,-0.226,0.031,-50.07,80.59,0
206762.0,0.242,0.349,0.146,50.98,-58.95,0
206767.0,-0.258,-0.223,-0.01,-40.84,92.18,0
206772.0,0.348,0.148,0.074,22.58,-77.98,0
206777.0,0.089,0.26,0.019,70.74,-78.0,0
206782.0,0.419,0.327,0.163,36.05,-68.81,0
206787.0,-0.261,-0.199,0.076,-36.29,73.66,0
206792.0,0.383,0.2,-0.134,26.26,-109.3,0
206797.0,-0.292,-0.257,-0.005,-41.36,90.99,0
206802.0,0.288,0.366,-0.141,48.76,-116.19,0
206807.0,-0.364,-0.259,0.072,-34.98,78.86,0
206812.0,0.4,0.306,-0.168,35.17,-112.75,0
206817.0,0.125,0.229,0.033,60.58,-75.08,0
206822.0,0.357,0.325,-0.189,38.8,-117.94,0
206827.0,-0.294,-0.252,0.064,-39.93,77.65,0
206832.0,0.304,0.327,-0.132,44.61,-113.43,0
206837.0,-0.296,0.169,-0.027,29.64,95.12,0
206842.0,0.386,-0.35,-0.249,-37.32,-122.86,0
206847.0,-0.27,0.402,0.009,56.06,88.02,0
206852.0,0.436,-0.345,-0.206,-35.6,-115.3,0
206857.0,0.065,0.162,-0.094,54.9,-145.21,0
206862.0,0.364,-0.355,-0.201,-40.46,-118.93,0
206867.0,-0.227,0.351,0.112,54.21,63.68,0
206872.0,0.465,-0.252,-0.223,-26.05,-115.62,0
206877.0,-0.323,0.251,-0.101,36.56,107.34,0
206882.0,-0.162,-0.329,-0.199,-51.99,140.78,0
206887.0,0.005,0.27,0.019,85.84,-15.34,0
206892.0,-0.249,-0.326,-0.225,-44.2,132.18,0
206897.0,-0.004,0.253,0.002,88.89,63.84,0
206902.0,-0.198,-0.369,-0.254,-48.89,142.02,0
206907.0,0.015,0.351,0.019,86.09,-37.97,0
206912.0,-0.201,-0.319,-0.18,-49.82,131.85,0
206917.0,-0.002,0.315,-0.022,86.03,174.77,0
206922.0,-0.098,-0.424,-0.185,-63.8,152.09,0
206927.0,-0.038,0.303,0.136,65.01,15.55,0
206932.0,-0.172,-0.396,-0.194,-56.75,138.47,0
206937.0,-0.016,0.354,-0.115,71.8,171.91,0
206942.0,-0.059,-0.357,-0.118,-69.77,153.17,0
206947.0,0.051,0.222,0.151,54.41,-18.6,0
206952.0,-0.162,-0.345,-0.177,-55.15,137.53,0
206957.0,0.008,0.387,-0.072,79.4,-173.99,0
206962.0,-0.088,-0.25,-0.201,-48.63,156.35,0
206967.0,0.012,0.294,0.048,80.49,-14.55,0
206972.0,-0.165,-0.456,-0.192,-60.97,139.33,0
206977.0,-0.047,0.268,-0.007,79.81,98.88,0
206982.0,-0.036,-0.271,-0.161,-58.75,167.53,0
206987.0,-0.031,0.356,0.098,73.92,17.42,0
206992.0,-0.083,-0.353,-0.067,-73.1,128.89,0
206997.0,0.015,0.303,0.017,85.82,-41.79,0
207002.0,0.005,-0.326,-0.086,-75.14,-176.57,0
207007.0,0.01,0.435,0.074,80.26,-7.68,0
207012.0,-0.136,-0.367,-0.149,-61.22,137.54,0
207017.0,0.036,0.311,0.036,80.69,-45.51,0
207022.0,-0.002,-0.336,-0.072,-77.88,178.41,0
207027.0,0.003,0.373,0.098,75.28,-1.63,0
207032.0,-0.074,-0.312,-0.127,-64.76,149.86,0
207037.0,-0.026,0.354,0.031,83.49,40.02,0
207042.0,-0.055,-0.42,-0.11,-73.64,153.65,0
207047.0,-0.069,0.344,0.033,77.45,64.26,0
207052.0,-0.05,-0.355,-0.213,-58.32,166.84,0
207057.0,-0.043,0.363,0.048,80.01,41.86,0
207062.0,0.063,-0.338,-0.01,-79.38,-98.9,0
207067.0,-0.047,0.442,0.115,74.32,22.49,0
207072.0,-0.009,-0.348,-0.098,-74.14,174.67,0
207077.0,-0.026,0.342,0.045,81.32,29.82,0
207082.0,0.053,-0.379,-0.103,-72.97,-152.78,0
207087.0,-0.079,0.294,0.014,74.79,79.81,0
207092.0,0.01,-0.257,-0.036,-81.69,-164.57,0
207097.0,-0.043,0.303,0.055,77.1,37.91,0
207102.0,0.041,-0.321,-0.062,-76.9,-146.67,0
207107.0,-0.045,0.347,0.079,75.32,29.79,0
207112.0,0.089,-0.281,0.012,-72.27,-82.49,0
207117.0,-0.004,0.272,0.086,72.46,2.92,0
207122.0,0.099,-0.307,-0.003,-72.2,-91.53,0
207127.0,-0.076,0.277,0.127,61.92,31.04,0
207132.0,0.211,-0.226,0.105,-43.74,-63.53,0
207137.0,-0.122,0.294,0.002,67.5,88.98,0
207142.0,0.132,-0.247,-0.027,-61.41,-101.38,0
207147.0,-0.093,0.232,0.105,58.79,41.5,0
207152.0,0.099,-0.242,0.05,-65.49,-63.08,0
207157.0,-0.143,0.339,-0.039,66.39,105.06,0
207162.0,0.041,-0.166,-0.048,-69.11,-139.5,0
207167.0,-0.045,0.236,0.124,60.79,19.94,0
207172.0,0.149,-0.326,0.067,-63.43,-65.83,0
207177.0,-0.141,0.263,0.045,60.61,72.19,0
207182.0,0.151,-0.175,0.043,-48.14,-74.18,0
207187.0,-0.117,0.251,0.1,58.43,49.37,0
207192.0,0.163,-0.163,0.007,-45.02,-87.56,0
207197.0,-0.117,0.222,-0.027,61.63,102.81,0
207202.0,0.137,-0.123,0.036,-40.95,-75.39,0
207207.0,-0.105,0.124,0.074,43.97,54.82,0
207212.0,0.216,-0.207,-0.039,-43.28,-100.12,0
207217.0,-0.189,0.217,-0.046,48.2,103.62,0
207222.0,0.202,-0.113,0.033,-28.99,-80.62,0
207227.0,-0.112,0.179,0.175,40.78,32.72,0
207232.0,0.206,-0.238,0.134,-44.02,-57.03,0
207237.0,-0.093,0.193,0.05,61.35,61.71,0
207242.0,0.228,-0.058,0.098,-13.18,-66.74,0
207247.0,-0.117,0.126,0.146,34.04,38.72,0
207252.0,0.252,-0.187,0.091,-35.0,-70.18,0
207257.0,-0.138,0.107,0.04,36.59,73.71,0
207262.0,0.266,0.028,0.108,5.59,-68.01,0
207267.0,-0.105,0.119,0.151,32.97,34.87,0
207272.0,0.3,-0.178,0.131,-28.52,-66.32,0
207277.0,-0.155,0.153,0.064,42.24,67.47,0
207282.0,0.211,0.026,0.079,6.51,-69.54,0
207287.0,-0.107,0.062,0.134,19.75,38.73,0
207292.0,0.249,-0.25,0.064,-44.1,-75.52,0
207297.0,-0.203,0.076,-0.082,19.14,111.9,0
207302.0,0.29,0.138,0.108,24.07,-69.67,0
207307.0,-0.189,0.035,0.151,8.31,51.41,0
207312.0,0.36,-0.094,-0.185,-13.1,-117.18,0
207317.0,-0.213,-0.108,-0.029,-26.79,97.76,0
207322.0,0.17,0.126,0.086,33.49,-63.23,0
207327.0,-0.119,0.035,0.091,13.24,52.75,0
207332.0,0.314,-0.068,0.182,-10.57,-59.94,0
207337.0,-0.17,-0.07,0.093,-19.91,61.23,0
207342.0,0.364,0.129,0.175,17.66,-64.4,0
207347.0,-0.222,-0.001,0.117,-0.15,62.22,0
207352.0,0.309,-0.355,-0.137,-46.39,-113.85,0
207357.0,-0.22,-0.108,-0.015,-26.19,93.8,0
207362.0,0.297,0.2,0.079,33.1,-75.16,0
207367.0,-0.189,-0.049,0.064,-13.67,71.16,0
207372.0,0.376,0.076,0.143,10.68,-69.14,0
207377.0,-0.213,-0.214,0.057,-44.14,74.94,0
207382.0,0.357,0.189,0.151,25.94,-67.14,0
207387.0,-0.198,-0.132,0.021,-33.56,83.87,0
207392.0,-0.285,-0.321,-0.168,-44.22,120.54,0
207397.0,-0.229,-0.25,-0.007,-47.4,91.85,0
207402.0,0.386,0.26,-0.211,30.63,-118.66,0
207407.0,-0.237,-0.178,0.091,-35.05,69.02,0
207412.0,0.381,0.174,-0.204,21.95,-118.13,0
207417.0,-0.277,-0.18,-0.084,-31.88,106.86,0
207422.0,0.34,0.311,-0.197,38.32,-120.01,0
207427.0,-0.179,-0.207,0.04,-48.35,77.27,0
207432.0,-0.265,-0.295,-0.211,-41.04,128.48,0
207437.0,-0.261,0.256,-0.015,44.4,93.21,0
207442.0,0.369,-0.25,-0.213,-30.35,-120.03,0
207447.0,-0.213,0.224,0.093,44.03,66.35,0
207452.0,0.283,-0.329,-0.199,-43.54,-125.12,0
207457.0,-0.222,0.301,-0.091,51.41,112.31,0
207462.0,0.455,-0.238,-0.242,-24.75,-118.0,0
207467.0,-0.201,0.296,-0.046,55.2,102.83,0
207472.0,-0.328,-0.381,-0.302,-40.56,132.66,0
207477.0,0.022,0.256,-0.058,76.42,-159.17,0
207482.0,-0.126,-0.29,-0.161,-54.84,141.78,0
207487.0,0.0,0.339,0.036,84.0,-0.64,0
207492.0,-0.234,-0.336,-0.189,-48.11,128.96,0
207497.0,0.175,0.222,0.074,49.42,-67.1,0
207502.0,-0.215,-0.367,-0.122,-56.01,119.63,0
207507.0,-0.021,0.311,-0.048,80.39,156.28,0
207512.0,-0.275,-0.228,-0.237,-32.13,130.79,0
207517.0,-0.019,0.301,-0.094,72.4,168.67,0
207522.0,-0.148,-0.41,-0.271,-53.03,151.33,0
207527.0,-0.083,0.133,-0.067,51.24,128.89,0
207532.0,-0.275,-0.259,-0.278,-33.54,135.31,0
207537.0,-0.004,0.344,-0.048,82.01,174.79,0
207542.0,-0.165,-0.321,-0.211,-50.22,142.0,0
207547.0,0.043,0.301,0.072,74.45,-31.28,0
207552.0,-0.244,-0.439,-0.185,-55.13,127.13,0
207557.0,0.084,0.394,-0.031,77.17,-110.43,0
207562.0,-0.158,-0.305,-0.259,-45.16,148.66,0
207567.0,-0.064,0.203,0.028,70.89,66.08,0
207572.0,-0.155,-0.386,-0.175,-58.79,138.43,0
207577.0,-0.036,0.282,-0.062,75.7,150.39,0
207582.0,-0.148,-0.233,-0.218,-41.46,145.83,0
207587.0,-0.024,0.323,0.06,78.76,21.55,0
207592.0,-0.052,-0.501,-0.149,-72.54,160.63,0
207597.0,-0.055,0.344,-0.015,80.66,104.96,0
207602.0,0.039,-0.269,-0.11,-66.48,-160.67,0
207607.0,0.008,0.325,0.112,70.9,-3.86,0
207612.0,-0.143,-0.4,-0.108,-65.87,127.01,0
207617.0,0.055,0.301,-0.019,78.96,-109.27,0
207622.0,-0.081,-0.19,-0.158,-46.87,152.89,0
207627.0,0.043,0.323,0.062,76.79,-35.05,0
207632.0,-0.095,-0.458,-0.221,-62.32,156.61,0
207637.0,-0.112,0.27,-0.074,63.5,123.59,0
207642.0,0.012,-0.245,-0.139,-60.3,-174.92,0
207647.0,-0.083,0.421,0.062,76.13,53.37,0
207652.0,-0.081,-0.408,-0.141,-68.2,150.21,0
207657.0,-0.031,0.263,0.017,82.44,61.73,0
207662.0,-0.007,-0.355,-0.082,-77.0,175.25,0
207667.0,-0.062,0.473,0.062,79.52,44.93,0
207672.0,-0.098,-0.312,-0.175,-57.27,150.81,0
207677.0,-0.059,0.239,0.038,73.53,57.37,0
207682.0,0.029,-0.384,-0.041,-82.54,-144.57,0
207687.0,-0.031,0.394,0.072,78.83,23.23,0
207692.0,-0.059,-0.288,-0.137,-62.63,156.5,0
207697.0,0.0,0.301,0.033,83.69,-0.69,0
207702.0,-0.004,-0.377,-0.086,-77.06,177.09,0
207707.0,-0.026,0.313,0.069,76.72,20.55,0
207712.0,-0.009,-0.238,-0.146,-58.34,176.41,0
207717.0,-0.083,0.356,0.009,76.74,83.61,0
207722.0,0.012,-0.345,-0.091,-75.08,-172.28,0
207727.0,-0.04,0.275,0.076,72.55,27.82,0
207732.0,-0.069,-0.264,-0.158,-56.82,156.43,0
207737.0,-0.088,0.366,-0.027,75.86,106.77,0
207742.0,0.039,-0.386,-0.086,-76.22,-155.88,0
207747.0,-0.047,0.236,0.036,75.9,53.08,0
207752.0,0.046,-0.305,-0.012,-81.14,-104.9,0
207757.0,-0.081,0.39,0.043,76.76,62.12,0
207762.0,0.043,-0.216,-0.07,-69.19,-148.02,0
207767.0,-0.081,0.2,0.064,62.7,51.51,0
207772.0,0.134,-0.398,0.009,-71.29,-86.03,0
207777.0,-0.119,0.373,-0.051,70.84,112.95,0
207782.0,0.067,-0.178,-0.029,-67.57,-113.25,0
207787.0,-0.105,0.294,0.105,63.19,44.96,0
207792.0,0.125,-0.321,-0.015,-68.64,-96.67,0
207797.0,-0.122,0.26,-0.005,64.92,92.37,0
207802.0,0.127,-0.168,0.009,-52.81,-85.8,0
207807.0,-0.043,0.284,0.182,56.71,13.22,0
207812.0,0.108,-0.298,-0.072,-66.41,-123.68,0
207817.0,-0.115,0.296,-0.036,67.93,107.52,0
207822.0,0.079,-0.228,-0.012,-70.6,-98.74,0
207827.0,-0.086,0.289,0.1,65.46,40.54,0
207832.0,0.103,-0.233,-0.027,-65.38,-104.42,0
207837.0,-0.146,0.196,-0.007,53.3,92.92,0
207842.0,0.13,-0.207,0.012,-57.77,-84.83,0
207847.0,-0.17,0.258,0.038,56.03,77.35,0
207852.0,0.146,-0.137,0.009,-43.06,-86.35,0
207857.0,-0.093,0.165,0.026,59.59,74.32,0
207862.0,0.252,-0.235,0.151,-38.73,-59.12,0
207867.0,-0.141,0.215,0.119,49.31,49.7,0
207872.0,0.24,-0.094,-0.175,-17.57,-126.12,0
207877.0,-0.153,0.258,0.119,53.05,51.98,0
207882.0,0.19,-0.144,0.105,-33.65,-60.99,0
207887.0,-0.105,0.095,0.079,35.94,53.11,0
207892.0,0.228,-0.075,0.076,-17.3,-71.47,0
207897.0,-0.129,0.112,0.064,37.83,63.45,0
207902.0,0.187,-0.106,0.024,-29.33,-82.78,0
207907.0,-0.086,0.016,0.105,6.78,39.22,0
207912.0,0.23,-0.046,-0.218,-8.28,-133.45,0
207917.0,-0.146,0.239,0.052,57.05,70.2,0
207922.0,0.259,-0.015,0.103,-3.08,-68.37,0
207927.0,-0.143,0.016,0.184,3.95,37.89,0
207932.0,0.326,-0.087,0.091,-14.39,-74.45,0
207937.0,-0.174,0.088,0.014,26.69,85.37,0
207942.0,0.228,0.062,0.127,13.3,-60.93,0
207947.0,-0.107,-0.041,0.182,-11.08,30.57,0
207952.0,0.316,-0.333,-0.182,-42.4,-119.93,0
207957.0,-0.17,0.054,0.052,17.05,72.82,0
207962.0,0.316,0.162,0.117,25.67,-69.7,0
207967.0,-0.172,0.007,0.117,1.8,55.75,0
207972.0,0.288,-0.144,0.088,-25.61,-72.93,0
207977.0,-0.098,0.019,0.019,10.53,79.05,0
207982.0,0.29,0.153,0.182,24.03,-57.94,0
207987.0,-0.167,0.014,0.1,4.03,59.04,0
207992.0,-0.378,-0.384,-0.259,-39.96,124.41,0
207997.0,-0.155,-0.077,-0.019,-26.28,97.12,0
208002.0,0.369,0.145,-0.345,16.06,-133.07,0
208007.0,-0.155,-0.099,-0.007,-32.45,92.74,0
208012.0,0.321,0.071,-0.141,11.46,-113.77,0
208017.0,-0.232,-0.175,0.048,-36.54,78.39,0
208022.0,0.261,0.275,-0.252,37.13,-133.91,0
208027.0,-0.253,-0.072,0.055,-15.62,77.79,0
208032.0,-0.249,-0.379,-0.024,-56.61,95.56,0
208037.0,-0.227,0.184,-0.005,38.97,91.27,0
208042.0,0.302,-0.242,-0.209,-33.45,-124.62,0
208047.0,-0.174,0.253,0.093,52.01,61.89,0
208052.0,0.29,-0.329,-0.23,-41.59,-128.42,0
208057.0,-0.17,0.186,-0.067,45.57,111.64,0
208062.0,0.309,-0.329,-0.144,-43.94,-114.95,0
208067.0,-0.232,0.335,0.091,53.34,68.62,0
208072.0,-0.292,-0.329,-0.175,-44.01,120.96,0
208077.0,0.108,0.27,0.012,68.05,-83.81,0
208082.0,-0.155,-0.321,-0.242,-48.19,147.33,0
208087.0,-0.021,0.256,0.017,84.0,52.0,0
208092.0,-0.258,-0.36,-0.259,-44.54,135.07,0
208097.0,0.087,0.205,0.057,63.18,-56.54,0
208102.0,-0.215,-0.274,-0.182,-44.14,130.27,0
208107.0,0.043,0.332,0.062,77.15,-35.05,0
208112.0,-0.294,-0.309,-0.23,-39.65,128.04,0
208117.0,0.048,0.234,-0.058,72.18,-140.08,0
208122.0,-0.093,-0.381,-0.185,-61.54,153.27,0
208127.0,-0.064,0.303,-0.053,74.66,129.47,0
208132.0,-0.241,-0.233,-0.168,-38.38,124.81,0
208137.0,0.07,0.366,0.002,79.18,-88.23,0
208142.0,-0.115,-0.367,-0.173,-60.55,146.44,0
208147.0,0.022,0.239,0.045,78.11,-25.87,0
208152.0,-0.258,-0.326,-0.221,-43.86,130.5,0
208157.0,0.048,0.284,-0.074,72.66,-147.04,0
208162.0,-0.158,-0.23,-0.211,-41.2,143.23,0
208167.0,-0.024,0.246,0.012,83.9,63.51,0
208172.0,-0.268,-0.298,-0.192,-42.09,125.61,0
208177.0,0.043,0.212,-0.01,78.15,-102.72,0
208182.0,-0.179,-0.254,-0.285,-37.07,147.86,0
208187.0,0.015,0.244,0.014,85.2,-46.26,0
208192.0,-0.217,-0.357,-0.156,-53.18,125.63,0
208197.0,-0.071,0.289,-0.113,65.21,147.65,0
208202.0,-0.194,-0.228,-0.35,-29.71,151.05,0
208207.0,-0.071,0.335,0.024,77.32,71.64,0
208212.0,-0.227,-0.396,-0.161,-54.9,125.28,0
208217.0,0.048,0.186,-0.062,67.01,-142.31,0
208222.0,-0.126,-0.369,-0.189,-58.34,146.26,0
208227.0,0.067,0.358,0.141,66.44,-25.56,0
208232.0,-0.194,-0.417,-0.17,-58.29,131.33,0
208237.0,0.02,0.385,-0.101,75.06,-169.02,0
208242.0,-0.081,-0.393,-0.12,-69.8,145.97,0
208247.0,0.046,0.414,0.108,74.22,-23.12,0
208252.0,-0.131,-0.42,-0.17,-62.87,142.36,0
208257.0,0.06,0.265,-0.015,76.84,-103.62,0
208262.0,-0.069,-0.408,-0.098,-73.57,144.95,0
208267.0,-0.045,0.394,0.11,73.24,22.31,0
208272.0,-0.112,-0.35,-0.187,-58.09,149.05,0
208277.0,-0.04,0.358,-0.031,81.89,127.89,0
208282.0,0.008,-0.374,-0.113,-73.19,-176.15,0
208287.0,0.012,0.275,0.088,72.01,-7.97,0
208292.0,-0.182,-0.398,-0.146,-59.64,128.86,0
208297.0,-0.009,0.426,-0.029,85.92,162.42,0
208302.0,-0.036,-0.314,-0.132,-66.51,164.93,0
208307.0,-0.016,0.282,0.072,75.4,12.87,0
208312.0,-0.067,-0.436,-0.12,-72.54,150.95,0
208317.0,-0.122,0.399,-0.077,70.17,122.27,0
208322.0,-0.024,-0.317,-0.125,-68.16,169.31,0
208327.0,0.012,0.418,0.105,75.8,-6.71,0
208332.0,-0.079,-0.494,-0.089,-76.49,138.49,0
208337.0,-0.04,0.308,-0.043,79.13,137.08,0
208342.0,-0.031,-0.353,-0.146,-67.03,168.14,0
208347.0,-0.11,0.418,-0.01,75.25,95.11,0
208352.0,-0.021,-0.388,-0.127,-71.65,170.56,0
208357.0,-0.081,0.375,0.002,77.81,88.48,0
208362.0,0.015,-0.286,-0.051,-79.56,-163.71,0
208367.0,-0.036,0.268,0.067,74.21,28.0,0
208372.0,-0.055,-0.345,-0.101,-71.64,151.53,0
208377.0,-0.057,0.289,0.028,77.56,63.47,0
208382.0,0.055,-0.286,-0.015,-78.64,-104.75,0
208387.0,-0.012,0.373,0.148,68.26,4.46,0
208392.0,0.034,-0.355,-0.051,-80.27,-146.12,0
208397.0,-0.04,0.332,0.05,79.05,38.85,0
208402.0,0.027,-0.269,-0.06,-76.25,-156.02,0
208407.0,-0.024,0.253,0.105,66.95,12.63,0
208412.0,0.008,-0.286,-0.067,-76.66,-173.57,0
208417.0,-0.162,0.258,-0.079,54.98,116.01,0
208422.0,0.096,-0.192,-0.039,-61.67,-111.84,0
208427.0,-0.1,0.208,0.105,55.04,43.62,0
208432.0,0.12,-0.329,-0.034,-69.21,-105.7,0
208437.0,-0.124,0.296,0.009,67.21,85.7,0
208442.0,0.156,-0.168,0.019,-46.95,-83.09,0
208447.0,-0.126,0.263,0.112,57.23,48.4,0
208452.0,0.204,-0.403,-0.029,-62.92,-98.09,0
208457.0,-0.172,0.277,-0.048,57.2,105.63,0
208462.0,0.067,-0.044,-0.036,-29.75,-118.2,0
208467.0,-0.069,0.229,0.072,66.54,43.96,0
208472.0,0.144,-0.391,-0.017,-69.64,-96.73,0
208477.0,-0.146,0.251,0.021,59.59,81.68,0
208482.0,0.185,-0.14,0.038,-36.48,-78.36,0
208487.0,-0.098,0.246,0.127,56.96,37.66,0
208492.0,0.225,-0.321,0.055,-54.18,-76.33,0
208497.0,-0.189,0.198,0.009,46.35,87.17,0
208502.0,0.12,-0.022,-0.058,-9.45,-115.66,0
208507.0,-0.122,0.177,0.052,53.11,66.69,0
208512.0,0.187,-0.4,-0.098,-62.17,-117.74,0
208517.0,-0.158,0.081,0.055,25.83,70.82,0
208522.0,0.103,-0.065,0.005,-32.25,-87.48,0
208527.0,-0.141,0.208,0.055,53.95,68.73,0
208532.0,0.166,-0.149,-0.012,-41.92,-94.22,0
208537.0,-0.179,0.014,-0.031,4.32,99.93,0
208542.0,0.216,-0.058,0.002,-15.06,-89.43,0
208547.0,-0.131,0.167,0.124,42.73,46.57,0
208552.0,0.259,-0.422,-0.192,-52.63,-126.52,0
208557.0,-0.138,0.098,0.057,33.06,67.55,0
208562.0,0.209,-0.104,0.105,-23.91,-63.27,0
208567.0,-0.122,0.119,0.098,37.32,51.18,0
208572.0,0.252,-0.128,0.009,-26.85,-87.88,0
208577.0,-0.107,0.119,0.11,37.78,44.33,0
208582.0,0.269,-0.022,0.16,-4.06,-59.19,0
208587.0,-0.162,0.069,0.002,22.96,89.24,0
208592.0,-0.294,-0.324,-0.134,-45.05,114.55,0
208597.0,-0.206,0.098,-0.027,25.2,97.37,0
208602.0,0.328,0.045,-0.235,6.34,-125.57,0
208607.0,-0.256,-0.027,0.033,-5.97,82.59,0
208612.0,0.41,0.033,-0.12,4.4,-106.31,0
208617.0,-0.256,-0.06,0.007,-13.3,88.44,0
208622.0,0.245,0.105,-0.225,17.48,-132.65,0
208627.0,-0.165,0.272,0.062,57.11,69.38,0
208632.0,-0.318,-0.281,-0.149,-38.65,115.06,0
208637.0,-0.249,0.248,-0.089,43.25,109.66,0
208642.0,0.276,-0.341,-0.192,-45.4,-124.82,0
208647.0,-0.258,0.332,0.112,49.72,66.49,0
208652.0,0.336,-0.372,-0.182,-44.23,-118.5,0
208657.0,-0.263,0.306,-0.012,49.28,92.66,0
208662.0,0.261,-0.242,-0.151,-38.77,-120.03,0
208667.0,-0.249,0.27,0.127,44.05,63.0,0
208672.0,-0.313,-0.379,-0.182,-46.28,120.18,0
208677.0,0.175,0.203,-0.007,49.16,-92.43,0
208682.0,-0.229,-0.214,-0.278,-30.67,140.46,0
208687.0,0.067,0.27,-0.113,64.04,-149.12,0
208692.0,-0.392,-0.379,-0.201,-40.68,117.17,0
208697.0,0.053,0.241,-0.039,74.79,-125.99,0
208702.0,-0.289,-0.226,-0.381,-25.26,142.78,0
208707.0,0.034,0.306,-0.017,82.93,-116.62,0
208712.0,-0.194,-0.305,-0.096,-54.66,116.38,0
208717.0,0.12,0.153,-0.007,51.74,-93.54,0
208722.0,-0.103,-0.226,-0.139,-52.56,143.6,0
208727.0,0.111,0.294,0.136,59.16,-39.05,0
208732.0,-0.258,-0.276,-0.086,-45.39,108.51,0
208737.0,0.12,0.16,-0.003,53.06,-91.26,0
208742.0,-0.093,-0.202,-0.158,-47.71,149.57,0
208747.0,0.082,0.301,0.151,60.35,-28.51,0
208752.0,-0.215,-0.329,-0.194,-48.6,132.08,0
208757.0,0.144,0.177,0.031,50.15,-77.9,0
208762.0,-0.134,-0.245,-0.153,-50.27,138.94,0
208767.0,0.084,0.354,0.057,73.94,-55.8,0
208772.0,-0.273,-0.309,-0.161,-44.37,120.52,0
208777.0,0.017,0.244,0.028,82.22,-31.06,0
208782.0,-0.126,-0.305,-0.223,-49.93,150.43,0
208787.0,0.058,0.318,0.062,75.06,-43.02,0
208792.0,-0.112,-0.35,-0.149,-62.0,142.98,0
208797.0,0.094,0.191,0.036,62.28,-69.17,0
208802.0,-0.17,-0.286,-0.144,-52.09,130.31,0
208807.0,0.075,0.318,0.088,70.0,-40.18,0
208812.0,-0.33,-0.266,-0.194,-34.83,120.47,0
208817.0,0.067,0.272,-0.125,62.49,-151.6,0
208822.0,-0.153,-0.377,-0.197,-56.52,142.13,0
208827.0,-0.007,0.337,0.091,74.89,4.28,0
208832.0,-0.184,-0.286,-0.18,-47.99,134.35,0
208837.0,0.012,0.306,-0.003,87.63,-102.01,0
208842.0,-0.052,-0.41,-0.077,-77.23,145.78,0
208847.0,0.024,0.378,0.084,77.02,-16.24,0
208852.0,-0.208,-0.348,-0.225,-48.61,137.3,0
208857.0,0.017,0.342,-0.115,71.19,-171.53,0
208862.0,-0.05,-0.362,-0.153,-65.98,162.0,0
208867.0,0.003,0.27,0.117,66.54,-1.37,0
208872.0,-0.201,-0.286,-0.199,-45.3,134.75,0
208877.0,0.072,0.279,0.064,70.9,-48.28,0
208882.0,-0.103,-0.264,-0.13,-57.96,141.63,0
208887.0,0.008,0.32,-0.017,86.67,-155.96,0
208892.0,-0.143,-0.338,-0.197,-54.28,143.92,0
208897.0,-0.012,0.366,-0.039,83.72,163.29,0
208902.0,-0.055,-0.367,-0.189,-61.76,163.9,0
208907.0,-0.076,0.335,0.038,75.71,63.46,0
208912.0,-0.15,-0.3,-0.13,-56.5,130.73,0
208917.0,0.036,0.337,0.002,83.84,-86.6,0
208922.0,-0.079,-0.314,-0.106,-67.27,143.33,0
208927.0,0.022,0.318,0.074,76.35,-16.52,0
208932.0,-0.098,-0.398,-0.139,-66.87,144.9,0
208937.0,-0.009,0.368,-0.01,87.91,136.92,0
208942.0,0.003,-0.341,-0.096,-74.25,-178.33,0
208947.0,-0.043,0.354,0.124,69.62,18.96,0
208952.0,-0.105,-0.374,-0.101,-68.75,133.84,0
208957.0,-0.012,0.37,-0.07,79.21,170.57,0
208962.0,-0.002,-0.269,-0.141,-62.23,179.19,0
208967.0,-0.055,0.284,0.021,78.34,68.7,0
208972.0,-0.024,-0.446,-0.046,-83.42,152.76,0
208977.0,-0.062,0.385,0.005,80.85,85.79,0
208982.0,-0.074,-0.36,-0.165,-63.27,155.95,0
208987.0,-0.081,0.411,0.005,78.84,86.79,0
208992.0,-0.115,-0.348,-0.168,-59.71,145.69,0
208997.0,-0.091,0.351,-0.005,75.52,93.18,0
209002.0,0.048,-0.317,-0.062,-76.0,-142.31,0
209007.0,-0.052,0.351,0.043,79.11,50.65,0
209012.0,-0.007,-0.391,-0.077,-78.83,174.96,0
209017.0,0.0,0.32,0.072,77.4,-0.32,0
209022.0,-0.014,-0.348,-0.11,-72.26,172.79,0
209027.0,-0.074,0.418,0.11,72.44,33.89,0
209032.0,0.142,-0.321,-0.007,-66.19,-93.0,0
209037.0,-0.067,0.378,0.076,74.98,41.1,0
209042.0,0.058,-0.321,-0.024,-78.96,-112.68,0
209047.0,0.02,0.224,0.141,57.61,-7.89,0
209052.0,0.032,-0.269,-0.06,-75.83,-152.32,0
209057.0,-0.103,0.303,-0.027,70.75,104.53,0
209062.0,0.132,-0.278,-0.005,-64.6,-92.18,0
209067.0,-0.071,0.301,0.163,59.47,23.72,0
209072.0,0.115,-0.238,-0.019,-63.8,-99.55,0
209077.0,-0.021,0.279,-0.007,85.42,109.33,0
209082.0,0.132,-0.242,0.055,-59.47,-67.46,0
209087.0,-0.086,0.189,0.139,49.15,31.75,0
209092.0,0.13,-0.185,0.045,-53.41,-70.76,0
209097.0,-0.062,0.268,0.091,67.68,34.28,0
209102.0,0.192,-0.262,0.057,-52.56,-73.4,0
209107.0,-0.067,0.289,0.067,71.92,44.93,0
209112.0,0.178,-0.396,-0.197,-56.2,-137.91,0
209117.0,-0.036,0.229,0.1,65.09,19.49,0
209122.0,0.156,-0.211,0.033,-52.95,-77.96,0
209127.0,-0.122,0.2,0.1,51.81,50.5,0
209132.0,0.166,-0.195,0.012,-49.53,-85.95,0
209137.0,-0.158,0.236,-0.017,56.15,96.15,0
209142.0,0.149,-0.154,-0.048,-44.53,-107.92,0
209147.0,-0.162,0.165,0.045,44.31,74.43,0
209152.0,0.202,-0.424,-0.141,-59.88,-125.08,0
209157.0,-0.071,0.246,0.079,66.62,42.2,0
209162.0,0.139,-0.135,-0.024,-43.62,-99.85,0
209167.0,-0.098,0.133,0.091,45.01,47.13,0
209172.0,0.245,-0.111,0.11,-22.44,-65.81,0
209177.0,-0.131,0.143,-0.101,40.83,127.52,0
209182.0,0.333,-0.082,-0.24,-11.3,-125.73,0
209187.0,-0.112,0.133,-0.031,48.89,105.63,0
209192.0,-0.402,-0.379,-0.285,-37.56,125.36,0
209197.0,-0.122,0.129,-0.003,46.58,91.24,0
209202.0,0.17,-0.068,-0.091,-19.3,-118.16,0
209207.0,-0.105,0.177,-0.01,59.16,95.34,0
209212.0,0.3,-0.183,-0.187,-27.34,-121.96,0
209217.0,-0.158,0.119,0.009,37.02,86.61,0
209222.0,0.266,-0.216,-0.271,-29.65,-135.49,0
209227.0,-0.158,0.279,-0.051,59.37,107.77,0
209232.0,-0.354,-0.381,-0.182,-43.77,117.24,0
209237.0,-0.129,0.272,0.019,64.43,81.65,0
209242.0,0.24,-0.319,-0.209,-45.11,-131.01,0
209247.0,-0.189,0.363,-0.015,62.48,94.42,0
209252.0,0.34,-0.393,-0.235,-43.56,-124.61,0
209257.0,-0.165,0.239,-0.089,51.9,118.32,0
209262.0,0.266,-0.293,-0.266,-37.88,-134.98,0
209267.0,0.041,0.306,0.048,78.37,-40.78,0
209272.0,-0.285,-0.314,-0.094,-46.38,108.21,0
209277.0,0.163,0.284,0.021,59.93,-82.56,0
209282.0,-0.201,-0.367,-0.235,-49.9,139.48,0
209287.0,0.077,0.277,0.096,66.11,-38.87,0
209292.0,-0.371,-0.348,-0.194,-39.73,117.64,0
209297.0,0.103,0.251,-0.201,47.93,-152.83,0
209302.0,-0.251,-0.242,-0.254,-34.17,135.34,0
209307.0,0.079,0.291,0.136,61.59,-30.24,0
209312.0,-0.304,-0.343,-0.187,-43.89,121.62,0
209317.0,0.113,0.27,-0.06,64.64,-118.02,0
209322.0,-0.241,-0.202,-0.194,-33.07,128.81,0
209327.0,0.067,0.212,0.052,68.1,-52.13,0
209332.0,-0.392,-0.321,-0.288,-33.46,126.24,0
209337.0,0.12,0.251,-0.161,51.34,-143.22,0
209342.0,-0.155,-0.202,-0.146,-43.41,133.3,0
209347.0,0.041,0.224,0.088,66.53,-24.95,0
209352.0,-0.359,-0.377,-0.247,-40.85,124.53,0
209357.0,0.142,0.251,-0.003,60.53,-91.06,0
209362.0,-0.222,-0.211,-0.221,-34.02,134.77,0
209367.0,0.041,0.332,-0.065,76.98,-147.65,0
209372.0,-0.318,-0.35,-0.271,-39.98,130.41,0
209377.0,0.132,0.189,0.084,50.34,-57.68,0
209382.0,-0.153,-0.283,-0.194,-48.89,141.79,0
209387.0,-0.057,0.382,-0.01,81.39,99.76,0
209392.0,-0.313,-0.293,-0.216,-37.58,124.55,0
209397.0,0.089,0.179,-0.019,63.02,-102.29,0
209402.0,-0.172,-0.293,-0.223,-46.12,142.35,0
209407.0,-0.014,0.37,-0.029,85.04,154.26,0
209412.0,-0.287,-0.35,-0.206,-44.75,125.7,0
209417.0,0.115,0.222,-0.017,62.3,-98.38,0
209422.0,-0.17,-0.326,-0.228,-48.97,143.32,0
209427.0,-0.028,0.313,-0.015,84.19,117.27,0
209432.0,-0.253,-0.271,-0.232,-38.26,132.54,0
209437.0,0.039,0.15,-0.036,70.58,-133.05,0
209442.0,-0.136,-0.321,-0.197,-53.36,145.31,0
209447.0,0.0,0.311,0.069,77.44,-0.33,0
209452.0,-0.189,-0.269,-0.185,-45.51,134.36,0
209457.0,0.015,0.275,-0.062,76.84,-166.71,0
209462.0,-0.091,-0.348,-0.177,-60.2,152.95,0
209467.0,0.0,0.33,0.024,85.89,-0.96,0
209472.0,-0.186,-0.307,-0.18,-49.86,133.98,0
209477.0,0.065,0.361,0.038,78.2,-59.66,0
209482.0,-0.105,-0.362,-0.139,-64.31,142.97,0
209487.0,0.008,0.306,0.076,75.91,-5.67,0
209492.0,-0.131,-0.388,-0.108,-66.37,129.44,0
209497.0,0.067,0.32,0.04,76.2,-59.04,0
209502.0,-0.091,-0.307,-0.151,-60.16,149.05,0
209507.0,-0.019,0.311,0.079,75.39,13.39,0
209512.0,-0.136,-0.336,-0.017,-67.79,97.12,0
209517.0,0.041,0.27,0.014,80.85,-71.03,0
209522.0,-0.119,-0.262,-0.23,-45.27,152.59,0
209527.0,0.027,0.301,0.057,78.15,-25.04,0
209532.0,-0.148,-0.345,-0.077,-64.22,117.44,0
209537.0,0.0,0.392,0.012,88.28,-1.95,0
209542.0,-0.098,-0.357,-0.177,-60.46,151.14,0
209547.0,0.012,0.303,0.062,78.23,-11.28,0
209552.0,-0.067,-0.46,-0.106,-74.82,147.74,0
209557.0,-0.088,0.296,-0.039,72.0,113.61,0
209562.0,-0.016,-0.262,-0.197,-52.98,175.24,0
209567.0,-0.036,0.435,0.088,77.66,21.9,0
209572.0,-0.055,-0.274,-0.07,-72.06,141.88,0
209577.0,-0.069,0.227,-0.091,63.24,142.88,0
209582.0,-0.098,-0.362,-0.223,-56.1,156.32,0
209587.0,-0.007,0.315,0.088,74.31,4.39,0
209592.0,-0.122,-0.293,-0.13,-58.74,136.78,0
209597.0,-0.074,0.325,-0.043,75.24,120.41,0
209602.0,0.02,-0.345,-0.072,-77.8,-164.82,0
209607.0,-0.057,0.358,0.093,73.05,31.49,0
209612.0,-0.043,-0.307,-0.192,-57.39,167.45,0
209617.0,-0.112,0.318,-0.086,65.99,127.63,0
209622.0,0.02,-0.357,-0.048,-81.73,-157.89,0
209627.0,-0.036,0.335,0.103,72.0,19.07,0
209632.0,-0.062,-0.331,-0.118,-68.14,152.25,0
209637.0,-0.071,0.39,-0.019,79.24,105.19,0
209642.0,0.012,-0.365,-0.096,-75.13,-172.66,0
209647.0,-0.1,0.294,0.033,70.24,71.62,0
209652.0,-0.069,-0.341,-0.189,-59.38,159.97,0
209657.0,-0.201,0.368,-0.06,60.35,106.67,0
209662.0,-0.002,-0.269,-0.125,-65.1,179.08,0
209667.0,-0.095,0.315,0.064,69.95,55.97,0
209672.0,-0.009,-0.396,-0.108,-74.68,175.14,0
209677.0,-0.119,0.382,-0.022,72.4,100.35,0
209682.0,0.015,-0.324,-0.043,-81.95,-161.19,0
209687.0,-0.055,0.294,0.081,71.58,33.96,0
209692.0,0.039,-0.35,-0.084,-75.2,-155.27,0
209697.0,-0.031,0.251,0.043,78.12,35.64,0
209702.0,0.077,-0.252,0.012,-72.82,-81.34,0
209707.0,-0.146,0.38,0.04,68.31,74.47,0
209712.0,0.089,-0.223,-0.07,-63.16,-128.06,0
209717.0,-0.088,0.217,0.088,60.12,44.95,0
209722.0,0.089,-0.276,-0.046,-70.07,-117.2,0
209727.0,-0.112,0.21,0.024,61.38,78.06,0
209732.0,0.139,-0.226,0.031,-57.71,-77.49,0
209737.0,-0.143,0.335,0.019,66.64,82.48,0
209742.0,0.123,-0.25,-0.098,-57.81,-128.77,0
209747.0,-0.115,0.279,0.088,62.64,52.35,0
209752.0,-0.378,-0.436,-0.141,-47.24,110.53,0
209757.0,-0.122,0.253,-0.036,63.36,106.54,0
209762.0,0.106,-0.307,-0.022,-70.63,-101.64,0
209767.0,-0.115,0.212,0.091,55.48,51.61,0
209772.0,0.149,-0.161,0.05,-45.72,-71.42,0
209777.0,-0.165,0.21,0.002,51.88,89.25,0
209782.0,0.204,-0.132,-0.127,-28.84,-121.94,0
209787.0,-0.124,0.117,0.048,41.27,69.0,0
209792.0,-0.383,-0.499,-0.141,-50.71,110.29,0
209797.0,-0.105,0.239,-0.007,66.22,94.04,0
209802.0,0.156,-0.151,-0.146,-35.31,-133.16,0
209807.0,-0.126,0.172,0.081,48.81,57.31,0
209812.0,0.213,-0.195,-0.18,-34.88,-130.11,0
209817.0,-0.155,0.308,-0.053,61.98,108.82,0
209822.0,0.211,-0.331,-0.24,-46.03,-138.63,0
209827.0,-0.088,0.347,-0.039,74.48,113.61,0
209832.0,-0.407,-0.477,-0.161,-47.5,111.56,0
209837.0,-0.11,0.318,0.028,70.37,75.44,0
209842.0,0.288,-0.307,-0.199,-41.28,-124.67,0
209847.0,-0.182,0.294,-0.022,58.11,96.84,0
209852.0,0.285,-0.329,-0.204,-43.15,-125.53,0
209857.0,-0.119,0.21,-0.041,59.01,108.94,0
209862.0,-0.229,-0.247,-0.18,-40.3,128.08,0
209867.0,0.089,0.323,0.057,71.84,-57.26,0
209872.0,-0.246,-0.396,-0.065,-57.24,104.76,0
209877.0,0.273,0.155,0.031,29.4,-83.55,0
209882.0,-0.301,-0.269,-0.242,-34.82,128.78,0
209887.0,0.161,0.323,-0.017,63.38,-96.03,0
209892.0,-0.371,-0.343,-0.161,-40.33,113.43,0
209897.0,0.194,0.26,-0.07,51.59,-109.72,0
209902.0,-0.234,-0.317,-0.292,-40.21,141.3,0
209907.0,0.01,0.299,0.038,82.49,-14.68,0
209912.0,-0.392,-0.336,-0.192,-37.57,116.05,0
209917.0,0.127,0.258,-0.125,55.36,-134.42,0
209922.0,-0.289,-0.372,-0.302,-41.64,136.22,0
209927.0,0.029,0.342,-0.031,82.86,-137.12,0
209932.0,-0.349,-0.324,-0.232,-37.67,123.66,0
209937.0,0.13,0.224,-0.127,51.02,-134.43,0
209942.0,-0.196,-0.305,-0.132,-52.22,123.95,0
209947.0,0.091,0.289,0.098,65.14,-43.02,0
209952.0,-0.263,-0.372,-0.211,-47.8,128.73,0
209957.0,0.142,0.203,-0.051,53.45,-109.63,0
209962.0,-0.229,-0.302,-0.187,-45.61,129.18,0
209967.0,0.017,0.32,-0.022,85.05,-141.78,0
209972.0,-0.354,-0.216,-0.23,-27.11,123.03,0
209977.0,0.166,0.22,-0.101,48.57,-121.33,0
209982.0,-0.201,-0.288,-0.225,-43.66,138.3,0
209987.0,0.048,0.2,-0.022,75.2,-114.29,0
209992.0,-0.445,-0.362,-0.268,-34.88,121.1,0
209997.0,0.058,0.296,-0.144,62.37,-158.09,0
210002.0,-0.222,-0.242,-0.24,-36.57,137.16,0
210007.0,0.027,0.263,-0.053,77.28,-153.19,0
210012.0,-0.308,-0.393,-0.173,-48.05,119.23,0
210017.0,0.051,0.301,0.012,80.2,-76.96,0
210022.0,-0.124,-0.23,-0.13,-52.11,136.23,0
210027.0,0.058,0.332,0.024,79.34,-67.72,0
210032.0,-0.296,-0.336,-0.18,-44.08,121.24,0
210037.0,0.132,0.162,-0.017,50.61,-97.33,0
210042.0,-0.15,-0.276,-0.216,-46.38,145.11,0
210047.0,0.055,0.313,0.036,78.1,-57.25,0
210052.0,-0.246,-0.274,-0.146,-43.69,120.72,0
210057.0,0.137,0.189,0.064,51.25,-64.8,0
210062.0,-0.229,-0.312,-0.211,-45.02,132.59,0
210067.0,-0.043,0.358,-0.065,77.78,146.65,0
210072.0,-0.203,-0.338,-0.276,-44.65,143.61,0
210077.0,-0.014,0.193,0.017,83.61,40.21,0
210082.0,-0.165,-0.343,-0.232,-50.28,144.67,0
210087.0,-0.012,0.306,-0.067,77.42,170.24,0
210092.0,-0.234,-0.274,-0.141,-44.99,121.14,0
210097.0,0.012,0.196,-0.005,86.1,-112.12,0
210102.0,-0.198,-0.305,-0.247,-43.9,141.22,0
210107.0,-0.04,0.272,0.009,81.36,76.95,0
210112.0,-0.258,-0.281,-0.153,-43.07,120.73,0
210117.0,0.149,0.251,0.057,57.55,-68.97,0
210122.0,-0.184,-0.345,-0.161,-54.74,131.13,0
210127.0,-0.028,0.265,0.005,83.82,80.88,0
210132.0,-0.162,-0.281,-0.18,-49.21,137.91,0
210137.0,-0.05,0.354,-0.046,79.17,132.51,0
210142.0,-0.146,-0.386,-0.3,-49.22,154.07,0
210147.0,-0.038,0.325,0.012,83.04,72.8,0
210152.0,-0.134,-0.384,-0.017,-70.65,97.25,0
210157.0,0.041,0.263,0.084,70.48,-26.19,0
210162.0,-0.071,-0.381,-0.177,-63.36,158.07,0
210167.0,0.005,0.402,0.069,80.2,-4.29,0
210172.0,-0.098,-0.365,-0.065,-72.16,123.57,0
210177.0,0.008,0.282,-0.043,81.13,-170.08,0
210182.0,-0.021,-0.405,-0.158,-68.5,172.39,0
210187.0,0.046,0.325,0.146,64.81,-17.47,0
210192.0,-0.141,-0.321,-0.043,-65.37,107.1,0
210197.0,0.072,0.363,-0.015,78.53,-101.43,0
210202.0,-0.119,-0.35,-0.153,-60.97,142.14,0
210207.0,-0.002,0.248,0.105,67.06,1.09,0
210212.0,-0.076,-0.36,-0.046,-76.12,120.96,0
210217.0,-0.069,0.335,-0.055,75.19,128.7,0
210222.0,0.0,-0.271,-0.118,-66.56,-179.81,0
210227.0,0.048,0.306,0.148,62.99,-18.05,0
210232.0,-0.103,-0.408,-0.067,-73.26,123.27,0
210237.0,0.015,0.375,0.033,84.46,-23.92,0
210242.0,-0.024,-0.338,-0.175,-62.43,172.34,0
210247.0,0.079,0.38,0.115,69.84,-34.7,0
210252.0,-0.079,-0.417,-0.027,-78.75,108.68,0
210257.0,-0.024,0.361,-0.022,84.92,132.78,0
210262.0,0.087,-0.333,-0.108,-67.46,-141.27,0
210267.0,-0.057,0.368,0.093,73.47,31.49,0
210272.0,-0.055,-0.357,-0.065,-76.64,139.88,0
210277.0,-0.105,0.327,-0.046,70.73,113.54,0
210282.0,0.067,-0.326,-0.086,-71.43,-142.04,0
210287.0,0.017,0.382,0.11,73.78,-8.87,0
210292.0,-0.043,-0.482,-0.094,-77.95,155.48,0
210297.0,-0.021,0.421,0.019,86.14,48.19,0
210302.0,-0.007,-0.369,-0.048,-82.5,171.98,0
210307.0,-0.033,0.478,0.093,78.32,19.58,0
210312.0,-0.002,-0.501,-0.096,-79.15,178.81,0
210317.0,-0.062,0.308,-0.024,77.84,111.35,0
210322.0,0.07,-0.365,0.014,-78.94,-78.56,0
210327.0,-0.057,0.32,0.122,67.2,25.09,0
210332.0,0.003,-0.3,-0.058,-79.1,-177.23,0
210337.0,-0.057,0.335,0.024,79.54,67.44,0
210342.0,0.166,-0.286,0.014,-59.8,-85.12,0
210347.0,-0.074,0.301,0.129,63.72,29.77,0
210352.0,-0.383,-0.527,-0.122,-52.7,107.73,0
210357.0,-0.007,0.33,0.045,82.1,8.53,0
210362.0,0.108,-0.314,-0.07,-67.74,-122.79,0
210367.0,-0.05,0.311,-0.0,80.88,90.27,0
210372.0,0.051,-0.288,-0.146,-61.73,-160.89,0
210377.0,-0.064,0.356,0.057,76.42,48.31,0
210382.0,0.149,-0.23,-0.161,-46.46,-137.19,0
210387.0,-0.069,0.224,0.105,60.74,33.3,0
210392.0,-0.387,-0.501,-0.151,-50.31,111.3,0
210397.0,-0.148,0.268,0.005,61.03,88.24,0
210402.0,0.173,-0.163,-0.137,-36.57,-128.35,0
210407.0,-0.047,0.181,0.024,73.69,63.47,0
210412.0,0.13,-0.53,-0.177,-67.47,-143.83,0
210417.0,-0.052,0.394,-0.041,80.44,128.07,0
210422.0,0.173,-0.348,-0.316,-43.98,-151.35,0
210427.0,-0.05,0.378,-0.0,82.48,90.27,0
210432.0,-0.407,-0.527,-0.101,-51.54,103.92,0
210437.0,-0.158,0.368,-0.046,65.97,106.18,0
210442.0,0.185,-0.29,-0.168,-49.31,-132.25,0
210447.0,-0.103,0.335,0.084,68.43,50.83,0
210452.0,0.213,-0.491,-0.163,-61.34,-127.37,0
210457.0,0.302,0.248,-0.027,39.32,-95.03,0
210462.0,-0.33,-0.221,-0.218,-29.18,123.46,0
210467.0,0.108,0.349,0.043,71.56,-68.38,0
210472.0,-0.308,-0.479,-0.173,-53.6,119.23,0
210477.0,0.237,0.26,0.06,46.76,-75.9,0
210482.0,-0.354,-0.259,-0.194,-32.7,118.75,0
210487.0,0.187,0.411,-0.027,65.31,-98.08,0
210492.0,-0.402,-0.506,-0.122,-50.29,106.93,0
210497.0,0.192,0.239,-0.039,50.65,-101.36,0
210502.0,-0.273,-0.278,-0.232,-37.85,130.46,0
210507.0,0.096,0.363,-0.01,75.1,-95.83,0
210512.0,-0.316,-0.46,-0.113,-53.94,109.66,0
210517.0,0.221,0.196,-0.055,40.7,-104.07,0
210522.0,-0.299,-0.286,-0.187,-39.01,122.03,0
210527.0,0.07,0.363,0.031,78.13,-66.14,0
210532.0,-0.359,-0.319,-0.216,-37.32,121.02,0
210537.0,0.156,0.258,-0.082,55.68,-117.62,0
210542.0,-0.282,-0.319,-0.232,-41.11,129.49,0
210547.0,0.099,0.349,0.014,74.07,-81.84,0
210552.0,-0.258,-0.429,-0.168,-54.34,123.03,0
210557.0,0.178,0.193,0.017,47.3,-84.68,0
210562.0,-0.22,-0.312,-0.18,-47.68,129.28,0
210567.0,0.07,0.296,0.048,74.07,-55.69,0
210572.0,-0.407,-0.3,-0.13,-35.1,107.67,0
210577.0,0.142,0.251,-0.062,58.31,-113.8,0
210582.0,-0.21,-0.295,-0.23,-43.44,137.57,0
210587.0,0.051,0.251,0.024,77.42,-64.93,0
210592.0,-0.34,-0.348,-0.18,-42.15,117.9,0
210597.0,0.211,0.236,0.007,48.22,-88.12,0
210602.0,-0.196,-0.312,-0.156,-51.24,128.5,0
210607.0,0.094,0.325,0.057,71.32,-58.61,0
210612.0,-0.328,-0.388,-0.192,-45.66,120.34,0
210617.0,0.125,0.287,-0.027,65.99,-102.01,0
210622.0,-0.232,-0.29,-0.264,-39.59,138.67,0
210627.0,0.02,0.291,-0.012,85.48,-121.98,0
210632.0,-0.325,-0.341,-0.23,-40.53,125.28,0
210637.0,0.053,0.227,-0.108,62.06,-153.83,0
210642.0,-0.206,-0.302,-0.256,-42.61,141.29,0
210647.0,0.091,0.263,0.057,67.69,-57.94,0
210652.0,-0.316,-0.345,-0.177,-43.65,119.34,0
210657.0,0.123,0.227,-0.058,59.16,-115.22,0
210662.0,-0.174,-0.25,-0.204,-42.95,139.44,0
210667.0,0.06,0.375,0.088,74.09,-34.29,0
210672.0,-0.282,-0.4,-0.228,-47.85,128.91,0
210677.0,0.089,0.203,-0.084,58.9,-133.36,0
210682.0,-0.174,-0.42,-0.256,-53.54,145.78,0
210687.0,0.008,0.339,0.084,76.11,-5.18,0
210692.0,-0.33,-0.262,-0.153,-35.71,114.94,0
210697.0,0.123,0.193,-0.062,54.57,-117.03,0
210702.0,-0.165,-0.293,-0.163,-51.62,134.69,0
210707.0,-0.071,0.27,0.017,74.8,76.98,0
210712.0,-0.232,-0.262,-0.23,-38.69,134.78,0
210717.0,0.058,0.239,-0.007,76.27,-97.31,0
210722.0,-0.194,-0.324,-0.249,-45.74,142.17,0
210727.0,0.027,0.258,0.009,83.73,-70.75,0
210732.0,-0.304,-0.281,-0.261,-35.03,130.7,0
210737.0,0.07,0.253,-0.015,74.26,-101.81,0
210742.0,-0.107,-0.29,-0.204,-51.58,152.22,0
210747.0,-0.045,0.27,-0.058,74.82,141.99,0
210752.0,-0.186,-0.381,-0.106,-60.68,119.54,0
210757.0,0.087,0.294,0.079,68.28,-47.71,0
210762.0,-0.17,-0.343,-0.256,-48.13,146.52,0
210767.0,-0.028,0.311,0.021,83.49,53.05,0
210772.0,-0.244,-0.286,-0.182,-43.17,126.77,0
210777.0,-0.059,0.227,-0.146,55.15,157.88,0
210782.0,-0.136,-0.226,-0.268,-36.87,153.12,0
210787.0,-0.059,0.263,0.088,67.94,33.94,0
210792.0,-0.201,-0.269,-0.177,-45.1,131.47,0
210797.0,0.048,0.234,-0.053,72.98,-137.62,0
210802.0,-0.138,-0.233,-0.189,-44.79,143.83,0
210807.0,0.029,0.27,-0.01,83.5,-108.62,0
210812.0,-0.172,-0.408,-0.13,-62.16,126.98,0
210817.0,0.008,0.284,-0.031,83.52,-166.41,0
210822.0,-0.115,-0.298,-0.235,-48.71,154.01,0
210827.0,-0.028,0.332,0.064,78.04,23.74,0
210832.0,-0.194,-0.41,-0.232,-53.58,140.22,0
210837.0,-0.04,0.265,-0.074,72.29,151.57,0
210842.0,-0.091,-0.24,-0.046,-67.09,116.79,0
210847.0,0.012,0.416,0.067,80.72,-10.49,0
210852.0,-0.186,-0.515,-0.187,-62.88,135.1,0
210857.0,0.017,0.26,-0.039,80.79,-156.0,0
210862.0,-0.105,-0.379,-0.194,-59.78,151.61,0
210867.0,-0.081,0.478,0.007,80.35,85.1,0
210872.0,-0.122,-0.257,-0.051,-62.84,112.54,0
210877.0,0.02,0.236,0.012,84.49,-59.03,0
210882.0,-0.024,-0.417,-0.141,-71.03,170.55,0
210887.0,-0.076,0.37,0.06,75.36,51.97,0
210892.0,-0.134,-0.214,-0.13,-48.95,134.1,0
210897.0,0.02,0.311,-0.01,85.97,-116.66,0
210902.0,0.015,-0.398,-0.113,-74.06,-172.54,0
210907.0,-0.098,0.253,0.072,64.42,53.79,0
210912.0,-0.059,-0.491,-0.079,-78.6,143.12,0
210917.0,-0.045,0.378,-0.015,82.85,107.95,0
210922.0,-0.007,-0.338,-0.082,-76.38,175.25,0
210927.0,-0.045,0.32,0.11,69.65,22.31,0
210932.0,-0.019,-0.388,-0.058,-81.12,161.99,0
210937.0,-0.024,0.394,0.06,80.77,21.55,0
210942.0,-0.004,-0.321,-0.077,-76.53,176.73,0
210947.0,-0.062,0.265,0.043,74.15,55.28,0
210952.0,-0.328,-0.479,-0.051,-55.34,98.77,0
210957.0,-0.119,0.385,-0.019,72.56,99.23,0
210962.0,0.0,-0.309,-0.132,-66.91,-179.83,0
210967.0,-0.021,0.344,0.139,67.83,8.67,0
210972.0,0.029,-0.405,-0.072,-79.14,-157.99,0
210977.0,-0.083,0.378,-0.012,77.42,98.33,0
210982.0,0.096,-0.309,-0.168,-57.99,-150.19,0
210987.0,-0.062,0.287,0.148,60.74,22.65,0
210992.0,0.079,-0.374,-0.046,-76.24,-119.94,0
210997.0,-0.093,0.323,0.021,73.53,77.09,0
211002.0,0.022,-0.214,-0.108,-62.73,-168.51,0
211007.0,-0.093,0.387,0.158,64.69,30.51,0
211012.0,0.106,-0.544,-0.127,-73.1,-140.25,0
211017.0,-0.11,0.406,-0.01,74.83,95.11,0
211022.0,0.099,-0.302,-0.153,-58.9,-147.29,0
211027.0,-0.002,0.318,0.028,84.86,4.01,0
211032.0,-0.483,-0.501,-0.213,-43.49,113.82,0
211037.0,-0.036,0.404,-0.055,80.76,147.29,0
211042.0,0.146,-0.271,-0.168,-50.6,-138.89,0
211047.0,-0.05,0.351,0.055,78.09,42.29,0
211052.0,-0.352,-0.558,-0.146,-55.71,112.59,0
211057.0,0.314,0.378,0.057,49.79,-79.67,0
211062.0,-0.261,-0.333,-0.127,-48.99,116.01,0
211067.0,0.209,0.416,0.033,63.07,-80.94,0
211072.0,-0.431,-0.458,-0.118,-45.74,105.27,0
211077.0,0.362,0.244,0.108,32.83,-73.46,0
211082.0,-0.308,-0.298,-0.125,-41.8,112.02,0
211087.0,0.139,0.358,-0.041,67.96,-106.38,0
211092.0,-0.39,-0.381,-0.053,-44.1,97.73,0
211097.0,0.324,0.294,0.093,41.11,-73.94,0
211102.0,-0.282,-0.42,-0.168,-51.96,120.75,0
211107.0,0.209,0.471,0.084,64.49,-68.18,0
211112.0,-0.428,-0.427,-0.173,-42.75,111.96,0
211117.0,0.316,0.291,-0.077,41.83,-103.65,0
211122.0,-0.287,-0.381,-0.206,-47.19,125.7,0
211127.0,0.132,0.337,0.064,66.44,-64.01,0
211132.0,-0.378,-0.405,-0.158,-44.69,112.72,0
211137.0,0.281,0.279,0.009,44.88,-88.09,0
211142.0,-0.268,-0.333,-0.156,-47.1,120.2,0
211147.0,0.168,0.303,0.06,59.57,-70.46,0
211152.0,-0.332,-0.374,-0.137,-46.15,112.36,0
211157.0,0.204,0.311,-0.015,56.65,-94.1,0
211162.0,-0.308,-0.36,-0.173,-45.51,119.23,0
211167.0,0.099,0.347,-0.053,72.11,-118.23,0
211172.0,-0.419,-0.408,-0.23,-40.48,118.8,0
211177.0,0.273,0.275,-0.024,45.03,-95.06,0
211182.0,-0.258,-0.309,-0.197,-43.65,127.28,0
211187.0,0.051,0.306,-0.079,72.9,-147.4,0
211192.0,-0.387,-0.307,-0.144,-36.61,110.37,0
211197.0,0.127,0.27,-0.046,63.38,-109.76,0
211202.0,-0.208,-0.319,-0.256,-44.03,140.97,0
211207.0,0.082,0.229,-0.007,70.28,-95.18,0
211212.0,-0.316,-0.42,-0.132,-50.81,112.68,0
211217.0,0.168,0.277,-0.07,56.72,-112.52,0
211222.0,-0.227,-0.298,-0.225,-42.93,134.78,0
211227.0,0.053,0.32,0.086,72.49,-31.69,0
211232.0,-0.337,-0.283,-0.194,-36.04,119.94,0
211237.0,0.149,0.114,-0.17,26.81,-138.83,0
211242.0,-0.253,-0.216,-0.268,-30.35,136.65,0
211247.0,0.043,0.22,0.019,77.81,-66.5,0
211252.0,-0.359,-0.283,-0.199,-34.62,119.01,0
211257.0,0.156,0.172,-0.015,47.62,-95.35,0
211262.0,-0.186,-0.293,-0.137,-51.71,126.26,0
211267.0,0.032,0.296,0.038,80.53,-39.63,0
211272.0,-0.292,-0.367,-0.175,-47.17,120.96,0
211277.0,0.168,0.2,-0.101,45.66,-120.96,0
211282.0,-0.22,-0.24,-0.252,-35.69,138.85,0
211287.0,0.053,0.284,0.045,76.22,-49.55,0
211292.0,-0.356,-0.343,-0.165,-41.12,114.9,0
211297.0,0.132,0.239,-0.077,57.38,-120.19,0
211302.0,-0.191,-0.298,-0.264,-42.42,144.05,0
211307.0,0.075,0.256,0.11,62.53,-34.18,0
211312.0,-0.313,-0.398,-0.213,-46.41,124.26,0
211317.0,0.082,0.234,-0.086,63.04,-136.58,0
211322.0,-0.17,-0.204,-0.228,-35.72,143.32,0
211327.0,0.041,0.265,0.009,80.97,-77.2,0
211332.0,-0.359,-0.362,-0.249,-39.66,124.79,0
211337.0,0.02,0.227,-0.113,63.22,-170.16,0
211342.0,-0.203,-0.195,-0.213,-33.45,136.41,0
211347.0,0.094,0.224,0.057,63.92,-58.61,0
211352.0,-0.306,-0.357,-0.189,-44.8,121.75,0
211357.0,0.06,0.196,-0.065,65.65,-137.12,0
211362.0,-0.107,-0.185,-0.144,-45.86,143.28,0
211367.0,0.0,0.337,0.045,82.35,-0.51,0
211372.0,-0.239,-0.338,-0.218,-46.27,132.38,0
211377.0,0.12,0.131,0.06,44.34,-63.6,0
211382.0,-0.182,-0.223,-0.13,-45.03,125.5,0
211387.0,-0.002,0.449,-0.067,81.48,178.3,0
211392.0,-0.261,-0.29,-0.192,-41.9,126.35,0
211397.0,0.108,0.186,0.033,58.7,-72.89,0
211402.0,-0.105,-0.348,-0.209,-56.13,153.29,0
211407.0,0.015,0.337,0.024,85.26,-31.92,0
211412.0,-0.239,-0.233,-0.204,-36.56,130.44,0
211417.0,0.089,0.224,-0.046,65.97,-117.2,0
211422.0,-0.122,-0.396,-0.173,-61.91,144.81,0
211427.0,0.041,0.277,0.131,63.57,-17.36,0
211432.0,-0.167,-0.252,-0.165,-46.98,134.7,0
211437.0,0.091,0.296,-0.022,72.41,-103.41,0
211442.0,-0.105,-0.324,-0.17,-58.31,148.35,0
211447.0,0.008,0.289,0.141,63.96,-3.08,0
211452.0,-0.095,-0.298,-0.07,-68.35,126.15,0
211457.0,0.024,0.289,-0.036,81.43,-146.05,0
211462.0,-0.098,-0.345,-0.221,-55.07,156.09,0
211467.0,0.051,0.32,0.115,68.62,-23.84,0
211472.0,-0.16,-0.317,-0.062,-61.52,111.33,0
211477.0,-0.021,0.308,-0.074,75.9,164.14,0
211482.0,-0.055,-0.214,-0.177,-49.02,162.87,0
211487.0,-0.028,0.327,0.064,77.87,23.74,0
211492.0,-0.141,-0.307,-0.156,-55.62,137.89,0
211497.0,0.043,0.291,-0.031,79.58,-125.79,0
211502.0,-0.012,-0.317,-0.127,-68.04,174.8,0
211507.0,-0.014,0.282,0.014,85.97,44.67,0
211512.0,-0.146,-0.652,0.06,-76.43,67.74,0
211517.0,-0.146,0.356,-0.127,61.5,131.12,0
211522.0,-0.105,-0.25,-0.168,-51.59,147.98,0
211527.0,-0.079,0.311,0.05,73.3,57.52,0
211532.0,-0.107,-0.372,-0.189,-59.65,150.46,0
211537.0,-0.043,0.258,-0.062,73.65,145.66,0
211542.0,0.024,-0.35,-0.036,-82.91,-146.05,0
211547.0,0.032,0.38,0.203,61.58,-8.82,0
211552.0,-0.368,-0.592,-0.07,-57.66,100.71,0
211557.0,-0.036,0.426,-0.046,82.25,142.17,0
211562.0,-0.071,-0.295,-0.015,-76.12,101.56,0
211567.0,-0.071,0.325,0.177,59.58,21.98,0
211572.0,-0.028,-0.329,-0.108,-71.24,165.3,0
211577.0,-0.076,0.318,0.04,74.81,62.04,0
211582.0,0.058,-0.326,-0.084,-72.63,-145.45,0
211587.0,-0.043,0.327,0.086,73.66,26.42,0
211592.0,-0.385,-0.556,-0.048,-55.09,97.12,0
211597.0,-0.062,0.299,0.172,58.51,19.76,0
211602.0,0.051,-0.424,-0.137,-71.04,-159.66,0
211607.0,-0.069,0.406,0.069,76.48,44.93,0
211612.0,-0.1,-0.513,0.005,-78.94,87.4,0
211617.0,-0.04,0.435,0.196,65.29,11.61,0
211622.0,-0.064,-0.458,-0.074,-77.88,139.21,0
211627.0,-0.107,0.435,0.213,61.28,26.76,0
211632.0,-0.354,-0.525,0.009,-56.0,88.49,0
211637.0,-0.115,0.49,0.143,69.47,38.61,0
211642.0,0.039,-0.429,-0.106,-75.32,-159.87,0
211647.0,0.283,0.387,0.1,52.22,-70.48,0
211652.0,-0.335,-0.482,-0.077,-54.52,102.93,0
211657.0,0.36,0.385,0.045,46.72,-82.83,0
211662.0,-0.344,-0.278,-0.103,-37.75,106.68,0
211667.0,0.285,0.37,0.086,51.19,-73.23,0
211672.0,-0.32,-0.508,-0.062,-57.28,101.04,0
211677.0,0.324,0.38,0.048,49.28,-81.62,0
211682.0,-0.301,-0.338,-0.12,-46.21,111.71,0
211687.0,0.259,0.335,0.091,50.64,-70.69,0
211692.0,-0.325,-0.489,-0.062,-55.9,100.88,0
211697.0,0.343,0.358,0.072,45.67,-78.2,0
211702.0,-0.294,-0.312,-0.108,-44.87,110.16,0
211707.0,0.292,0.373,0.069,51.13,-76.69,0
211712.0,-0.375,-0.472,-0.103,-50.49,105.37,0
211717.0,0.324,0.296,0.017,42.43,-87.08,0
211722.0,-0.385,-0.298,-0.182,-34.93,115.32,0
211727.0,0.206,0.442,0.064,63.96,-72.66,0
211732.0,-0.335,-0.503,-0.06,-55.95,100.18,0
211737.0,0.259,0.275,-0.022,46.59,-94.81,0
211742.0,-0.301,-0.36,-0.209,-44.48,124.69,0
211747.0,0.233,0.404,0.079,58.7,-71.29,0
211752.0,-0.364,-0.444,-0.027,-50.59,94.18,0
211757.0,0.269,0.308,0.019,48.86,-85.97,0
211762.0,-0.299,-0.379,-0.182,-47.27,121.37,0
211767.0,0.314,0.433,0.119,52.17,-69.17,0
211772.0,-0.414,-0.484,-0.067,-49.12,99.23,0
211777.0,0.276,0.291,-0.034,46.37,-96.98,0
211782.0,-0.292,-0.326,-0.182,-43.49,121.99,0
211787.0,0.206,0.347,0.105,56.25,-63.0,0
211792.0,-0.349,-0.324,-0.165,-39.97,115.35,0
211797.0,0.24,0.141,-0.048,29.89,-101.35,0
211802.0,-0.33,-0.23,-0.094,-33.9,105.84,0
211807.0,0.18,0.301,0.005,59.12,-88.55,0
211812.0,-0.387,-0.362,-0.165,-40.68,113.12,0
211817.0,0.283,0.241,-0.012,40.42,-92.47,0
211822.0,-0.239,-0.367,-0.062,-56.05,104.65,0
211827.0,0.19,0.387,0.06,62.84,-72.54,0
211832.0,-0.33,-0.329,-0.113,-43.3,108.87,0
211837.0,0.261,0.32,0.045,50.36,-80.18,0
211842.0,-0.182,-0.439,-0.036,-67.12,101.26,0
211847.0,0.125,0.301,0.045,66.19,-70.08,0
211852.0,-0.378,-0.343,-0.194,-38.92,117.2,0
211857.0,0.278,0.32,-0.0,49.02,-90.05,0
211862.0,-0.237,-0.341,-0.211,-47.06,131.71,0
211867.0,0.118,0.208,0.031,59.63,-75.3,0
211872.0,-0.375,-0.36,-0.134,-42.06,109.68,0
211877.0,0.187,0.311,-0.015,58.85,-94.46,0
211882.0,-0.289,-0.286,-0.297,-34.55,135.76,0
211887.0,0.127,0.234,0.055,59.36,-66.7,0
211892.0,-0.349,-0.422,-0.089,-49.51,104.27,0
211897.0,0.221,0.284,-0.01,52.15,-92.55,0
211902.0,-0.244,-0.24,-0.211,-36.67,130.86,0
211907.0,0.096,0.342,0.112,66.61,-40.58,0
211912.0,-0.361,-0.405,-0.223,-43.68,121.68,0
211917.0,0.077,0.232,-0.139,55.53,-151.03,0
211922.0,-0.227,-0.245,-0.309,-32.55,143.7,0
211927.0,0.048,0.32,0.069,75.24,-34.91,0
211932.0,-0.316,-0.412,-0.146,-49.85,114.87,0
211937.0,0.185,0.179,-0.048,43.14,-104.6,0
211942.0,-0.167,-0.25,-0.187,-44.86,138.2,0
211947.0,0.089,0.354,0.091,70.24,-44.44,0
211952.0,-0.296,-0.377,-0.158,-48.25,118.09,0
211957.0,0.156,0.2,-0.019,51.89,-97.08,0
211962.0,-0.179,-0.242,-0.146,-46.35,129.23,0
211967.0,0.065,0.282,0.048,74.04,-53.78,0
211972.0,-0.349,-0.36,-0.28,-38.78,128.76,0
211977.0,0.113,0.186,-0.055,55.96,-116.09,0
211982.0,-0.198,-0.252,-0.165,-44.3,129.83,0
211987.0,0.07,0.323,0.072,72.78,-44.29,0
211992.0,-0.285,-0.329,-0.201,-43.32,125.29,0
211997.0,0.161,0.184,-0.003,48.8,-90.94,0
212002.0,-0.225,-0.286,-0.185,-44.48,129.41,0
212007.0,0.084,0.327,0.098,68.47,-40.69,0
212012.0,-0.27,-0.309,-0.173,-43.99,122.58,0
212017.0,0.106,0.289,0.064,66.81,-58.66,0
212022.0,-0.036,-0.362,-0.089,-75.2,158.21,0
212027.0,0.072,0.327,0.105,68.72,-34.5,0
212032.0,-0.234,-0.321,-0.213,-45.42,132.33,0
212037.0,0.101,0.277,-0.015,69.79,-98.23,0
212042.0,-0.122,-0.278,-0.151,-55.13,141.14,0
212047.0,-0.019,0.208,0.024,81.72,38.35,0
212052.0,-0.292,-0.283,-0.232,-37.2,128.55,0
212057.0,0.051,0.294,-0.005,80.17,-95.66,0
212062.0,-0.112,-0.25,-0.141,-54.13,141.61,0
212067.0,0.058,0.325,0.115,68.43,-26.77,0
212072.0,-0.146,-0.374,0.002,-68.73,89.15,0
212077.0,0.015,0.217,-0.041,78.67,-160.17,0
212082.0,-0.136,-0.281,-0.232,-46.19,149.66,0
212087.0,0.003,0.325,0.009,88.28,-16.65,0
212092.0,-0.229,-0.307,-0.199,-45.32,130.93,0
212097.0,0.055,0.236,-0.074,68.56,-143.32,0
212102.0,-0.095,-0.324,-0.151,-61.12,147.74,0
212107.0,-0.021,0.387,0.052,81.69,21.97,0
212112.0,-0.155,-0.487,-0.043,-71.68,105.6,0
212117.0,0.082,0.275,-0.015,73.17,-100.12,0
212122.0,-0.105,-0.393,-0.106,-69.27,135.17,0
212127.0,0.034,0.385,0.081,77.12,-22.68,0
212132.0,-0.213,-0.319,-0.149,-50.88,124.96,0
212137.0,0.005,0.308,0.026,85.07,-11.24,0
212142.0,-0.076,-0.338,-0.182,-59.72,157.3,0
212147.0,-0.091,0.279,0.021,71.58,76.76,0
212152.0,-0.33,-0.444,-0.01,-53.34,91.7,0
212157.0,-0.021,0.229,-0.07,72.38,163.11,0
212162.0,-0.11,-0.281,0.002,-68.65,88.87,0
212167.0,-0.019,0.402,0.134,71.4,7.98,0
212172.0,-0.155,-0.338,-0.036,-64.77,103.11,0
212177.0,0.0,0.265,0.093,70.64,-0.25,0
212182.0,-0.047,-0.439,-0.079,-78.11,149.07,0
212187.0,-0.055,0.404,0.155,67.82,19.38,0
212192.0,-0.32,-0.489,0.007,-56.76,88.76,0
212197.0,-0.117,0.296,0.16,56.2,36.13,0
212202.0,-0.002,-0.417,-0.096,-77.04,178.81,0
212207.0,-0.057,0.414,0.139,70.08,22.37,0
212212.0,-0.131,-0.468,0.014,-74.23,83.86,0
212217.0,0.022,0.423,0.117,74.28,-10.62,0
212222.0,-0.071,-0.405,-0.046,-78.18,122.63,0
212227.0,-0.095,0.44,0.143,68.62,33.62,0
212232.0,-0.344,-0.463,-0.053,-53.02,98.74,0
212237.0,-0.117,0.416,0.148,65.59,38.27,0
212242.0,0.024,-0.432,-0.029,-84.99,-139.96,0
212247.0,0.304,0.43,0.079,53.84,-75.49,0
212252.0,-0.356,-0.451,-0.034,-51.55,95.41,0
212257.0,0.417,0.505,0.115,49.4,-74.62,0
212262.0,-0.27,-0.532,-0.07,-62.33,104.46,0
212267.0,0.328,0.404,0.084,50.01,-75.72,0
212272.0,-0.294,-0.494,0.012,-59.21,87.72,0
212277.0,0.383,0.452,0.108,48.61,-74.34,0
212282.0,-0.34,-0.343,-0.084,-44.44,103.9,0
212287.0,0.372,0.39,0.179,43.36,-64.23,0
212292.0,-0.325,-0.535,-0.019,-58.64,93.41,0
212297.0,0.338,0.469,0.007,54.19,-88.82,0
212302.0,-0.311,-0.336,-0.118,-45.3,110.72,0
212307.0,0.292,0.375,0.064,51.41,-77.58,0
212312.0,-0.39,-0.477,-0.084,-50.11,102.16,0
212317.0,0.398,0.356,0.026,41.77,-86.25,0
212322.0,-0.371,-0.331,-0.185,-38.64,116.47,0
212327.0,0.223,0.414,0.093,59.69,-67.34,0
212332.0,-0.407,-0.527,-0.067,-51.99,99.39,0
212337.0,0.381,0.373,0.052,44.11,-82.17,0
212342.0,-0.38,-0.372,-0.177,-41.54,115.01,0
212347.0,0.237,0.404,-0.003,59.56,-90.64,0
212352.0,-0.414,-0.506,-0.115,-49.66,105.55,0
212357.0,0.259,0.347,0.014,53.19,-86.88,0
212362.0,-0.325,-0.321,-0.122,-42.77,110.62,0
212367.0,0.278,0.402,0.119,52.99,-66.75,0
212372.0,-0.32,-0.475,-0.043,-55.74,97.7,0
212377.0,0.357,0.344,0.098,42.9,-74.67,0
212382.0,-0.342,-0.377,-0.13,-45.84,110.74,0
212387.0,0.235,0.435,0.043,61.23,-79.67,0
212392.0,-0.383,-0.523,-0.149,-51.85,111.23,0
212397.0,0.295,0.33,0.017,48.15,-86.79,0
212402.0,-0.352,-0.403,-0.201,-44.84,119.8,0
212407.0,0.19,0.375,0.04,62.68,-77.95,0
212412.0,-0.404,-0.441,-0.151,-45.63,110.49,0
212417.0,0.285,0.349,-0.031,50.56,-96.27,0
212422.0,-0.344,-0.336,-0.218,-39.48,122.35,0
212427.0,0.132,0.335,-0.017,68.29,-97.33,0
212432.0,-0.435,-0.4,-0.158,-40.84,109.98,0
212437.0,0.218,0.318,-0.055,54.68,-104.22,0
212442.0,-0.335,-0.362,-0.216,-42.28,122.8,0
212447.0,0.154,0.296,0.064,60.65,-67.26,0
212452.0,-0.359,-0.408,-0.153,-46.25,113.16,0
212457.0,0.285,0.349,-0.007,50.72,-91.49,0
212462.0,-0.364,-0.25,-0.122,-33.06,108.6,0
212467.0,0.134,0.311,-0.019,66.37,-98.21,0
212472.0,-0.352,-0.412,-0.235,-44.29,123.75,0
212477.0,0.204,0.282,-0.019,54.0,-95.43,0
212482.0,-0.311,-0.331,-0.256,-39.4,129.52,0
212487.0,0.137,0.335,0.057,66.09,-67.31,0
212492.0,-0.399,-0.365,-0.189,-39.51,115.37,0
212497.0,0.202,0.279,-0.067,52.76,-108.46,0
212502.0,-0.265,-0.271,-0.228,-37.8,130.63,0
212507.0,0.094,0.339,0.026,73.99,-74.45,0
212512.0,-0.335,-0.422,-0.113,-50.07,108.61,0
212517.0,0.209,0.294,-0.036,54.22,-99.83,0
212522.0,-0.237,-0.288,-0.139,-46.37,120.45,0
212527.0,0.118,0.33,0.093,65.53,-51.65,0
212532.0,-0.32,-0.408,-0.139,-49.41,113.47,0
212537.0,0.158,0.193,-0.06,48.76,-110.77,0
212542.0,-0.325,-0.19,-0.259,-24.54,128.51,0
212547.0,0.127,0.296,0.031,66.15,-76.36,0
212552.0,-0.416,-0.362,-0.218,-37.62,117.66,0
