time_ms,accel_x,accel_y,accel_z,pitch,roll,sync
2352694.0,-0.018,-0.003,-0.006,-8.06,106.7,0
2352699.0,-0.004,-0.015,0.018,-37.9,12.21,0
2352704.0,-0.035,0.009,-0.032,11.05,132.2,0
2352709.0,-0.002,-0.022,-0.032,-34.44,177.13,0
2352714.0,-0.018,-0.0,-0.003,-0.98,99.62,0
2352719.0,-0.016,-0.0,0.004,-1.11,75.7,0
2352724.0,0.006,-0.005,-0.01,-23.56,-151.52,0
2352729.0,-0.011,-0.017,-0.003,-55.82,105.57,0
2352734.0,0.013,-0.012,0.028,-21.76,-24.51,0
2352739.0,0.008,-0.003,-0.001,-18.71,-95.15,0
2352744.0,0.022,0.012,0.006,26.61,-73.87,0
2352749.0,0.022,-0.027,-0.025,-38.69,-137.82,0
2352754.0,-0.026,-0.015,0.018,-25.0,54.18,0
2352759.0,-0.004,0.007,0.002,57.77,67.22,0
2352764.0,-0.018,-0.008,-0.049,-8.22,159.31,0
2352769.0,-0.011,-0.003,0.006,-11.87,59.95,0
2352774.0,-0.03,-0.036,0.006,-49.44,77.97,0
2352779.0,0.025,-0.005,-0.039,-6.31,-147.63,0
2352784.0,-0.011,-0.029,-0.003,-68.23,105.57,0
2352789.0,-0.014,-0.027,0.006,-60.59,64.52,0
2352794.0,-0.002,0.004,0.009,26.41,10.22,0
2352799.0,-0.004,0.004,-0.001,47.78,100.22,0
2352804.0,0.003,-0.003,0.026,-6.0,-7.1,0
2352809.0,0.003,-0.0,0.042,-0.43,-4.31,0
2352814.0,-0.002,-0.012,-0.006,-64.99,163.84,0
2352819.0,-0.009,-0.015,-0.017,-36.9,153.33,0
2352824.0,0.01,-0.0,0.033,-0.53,-17.55,0
2352829.0,-0.011,0.014,-0.003,50.45,105.57,0
2352834.0,-0.002,-0.048,-0.013,-75.14,172.83,0
2352839.0,-0.023,-0.027,0.018,-42.01,51.46,0
2352844.0,-0.014,0.009,-0.003,33.63,102.92,0
2352849.0,-0.016,-0.005,0.006,-16.52,67.95,0
2352854.0,-0.009,-0.003,0.011,-10.76,37.96,0
2352859.0,-0.045,-0.008,-0.01,-9.29,102.97,0
2352864.0,-0.004,-0.019,0.004,-73.69,44.44,0
2352869.0,0.003,0.007,0.006,43.59,-26.28,0
2352874.0,-0.006,-0.0,0.014,-1.21,25.07,0
2352879.0,0.003,0.004,0.006,31.8,-26.28,0
2352884.0,0.01,-0.005,0.006,-22.68,-58.08,0
2352889.0,-0.009,0.019,-0.02,40.92,156.17,0
2352894.0,-0.014,-0.012,0.002,-41.96,82.96,0
2352899.0,0.027,-0.015,0.028,-20.63,-44.09,0
2352904.0,0.006,-0.022,-0.006,-70.26,-134.59,0
2352909.0,-0.002,-0.01,-0.015,-33.12,173.96,0
2352914.0,0.041,-0.01,0.004,-13.35,-84.4,0
2352919.0,-0.014,0.012,0.004,39.44,73.3,0
2352924.0,0.001,0.002,-0.003,32.85,-165.62,0
2352929.0,-0.03,0.004,0.009,8.05,73.72,0
2352934.0,0.001,-0.0,0.004,-4.4,-11.1,0
2352939.0,-0.018,-0.017,-0.02,-32.26,137.27,0
2352944.0,-0.014,-0.005,0.002,-20.49,82.96,0
2352949.0,-0.016,-0.012,0.002,-37.44,84.01,0
2352954.0,-0.009,-0.024,0.014,-56.23,32.75,0
2352959.0,-0.014,0.016,0.011,43.01,50.33,0
2352964.0,-0.035,-0.003,0.004,-4.39,83.39,0
2352969.0,-0.018,-0.0,0.006,-0.94,70.6,0
2352974.0,0.006,0.026,0.021,50.34,-15.01,0
2352979.0,0.001,-0.029,0.03,-43.68,-1.5,0
2352984.0,-0.018,-0.015,0.023,-26.38,38.32,0
2352989.0,0.01,0.004,0.009,18.14,-49.51,0
2352994.0,0.006,-0.005,0.035,-8.16,-9.02,0
2352999.0,-0.002,0.012,0.004,69.44,21.42,0
2353004.0,-0.018,0.009,0.006,25.44,70.6,0
2353009.0,0.006,-0.0,-0.006,-2.33,-134.59,0
2353014.0,-0.018,0.021,0.002,49.03,84.78,0
2353019.0,0.01,-0.019,0.006,-57.88,-58.08,0
2353024.0,0.006,-0.003,-0.022,-6.74,-165.92,0
2353029.0,0.008,0.033,0.006,72.81,-50.99,0
2353034.0,0.013,0.019,0.002,55.64,-82.52,0
2353039.0,0.025,-0.019,0.002,-38.14,-86.13,0
2353044.0,-0.009,0.012,0.047,13.65,10.54,0
2353049.0,0.025,-0.012,-0.029,-17.72,-139.97,0
2353054.0,0.034,-0.022,0.009,-31.67,-75.53,0
2353059.0,-0.021,-0.022,-0.013,-41.96,121.45,0
2353064.0,-0.002,0.009,-0.006,58.23,163.84,0
2353069.0,-0.018,-0.005,-0.022,-10.04,140.5,0
2353074.0,-0.023,-0.01,0.009,-21.77,69.06,0
2353079.0,0.001,0.007,0.004,58.86,-11.1,0
2353084.0,-0.014,-0.003,0.011,-8.75,50.33,0
2353089.0,-0.023,-0.024,0.004,-45.91,80.03,0
2353094.0,0.001,0.016,-0.046,19.58,-179.01,0
2353099.0,-0.04,-0.003,-0.003,-3.88,94.46,0
2353104.0,-0.018,0.007,0.023,13.05,38.32,0
2353109.0,0.01,0.012,0.009,40.5,-49.51,0
2353114.0,-0.006,0.009,-0.015,29.47,157.06,0
2353119.0,0.003,0.019,-0.008,65.66,-158.0,0
2353124.0,-0.002,-0.01,-0.008,-50.84,168.58,0
2353129.0,0.006,-0.01,-0.015,-31.6,-159.68,0
2353134.0,0.001,0.024,0.026,42.67,-1.78,0
2353139.0,0.006,0.014,-0.017,37.43,-162.27,0
2353144.0,-0.011,-0.022,-0.001,-62.89,93.68,0
2353149.0,0.013,0.026,-0.01,57.77,-128.88,0
2353154.0,0.003,-0.012,-0.02,-31.41,-170.87,0
2353159.0,-0.009,-0.005,-0.008,-23.39,131.99,0
2353164.0,-0.009,-0.031,-0.008,-69.41,131.99,0
2353169.0,-0.011,0.007,0.011,23.4,44.8,0
2353174.0,-0.009,-0.003,0.018,-7.57,25.46,0
2353179.0,0.032,-0.015,0.002,-24.67,-87.0,0
2353184.0,0.003,0.021,-0.008,68.13,-158.0,0
2353189.0,0.003,0.004,0.028,9.01,-6.5,0
2353194.0,0.025,-0.041,-0.022,-50.94,-131.99,0
2353199.0,-0.002,-0.003,0.004,-31.83,21.42,0
2353204.0,0.001,-0.017,0.002,-83.8,-25.47,0
2353209.0,-0.011,-0.008,0.006,-30.16,59.95,0
2353214.0,-0.006,0.024,0.018,50.45,19.1,0
2353219.0,0.006,-0.027,0.026,-45.47,-12.3,0
2353224.0,0.001,0.012,-0.015,37.65,-176.97,0
2353229.0,-0.004,-0.017,-0.029,-29.89,172.28,0
2353234.0,-0.011,0.014,-0.01,42.75,132.66,0
2353239.0,0.006,-0.005,0.023,-12.07,-13.53,0
2353244.0,-0.023,-0.008,0.002,-17.92,85.86,0
2353249.0,-0.002,-0.003,0.016,-9.55,5.68,0
2353254.0,-0.006,-0.017,0.021,-38.09,17.04,0
2353259.0,0.015,-0.003,-0.056,-2.69,-164.79,0
2353264.0,0.015,-0.015,0.018,-31.6,-39.44,0
2353269.0,0.003,-0.019,-0.01,-61.03,-162.77,0
2353274.0,-0.004,0.007,0.011,29.89,19.53,0
2353279.0,-0.002,0.021,-0.053,21.67,178.29,0
2353284.0,-0.018,-0.043,-0.025,-54.7,143.34,0
2353289.0,-0.021,-0.0,-0.01,-0.79,116.39,0
2353294.0,-0.021,-0.008,0.038,-9.91,28.9,0
2353299.0,0.003,-0.012,-0.015,-38.56,-168.05,0
2353304.0,0.018,-0.005,0.03,-8.28,-30.0,0
2353309.0,0.008,0.012,0.023,25.38,-18.97,0
2353314.0,-0.002,0.002,-0.037,3.24,177.51,0
2353319.0,-0.011,-0.027,-0.003,-66.48,105.57,0
2353324.0,0.03,-0.012,-0.001,-22.59,-91.39,0
2353329.0,-0.026,-0.019,0.028,-27.19,42.36,0
2353334.0,-0.006,-0.008,-0.013,-27.84,153.29,0
2353339.0,-0.03,0.004,0.028,6.18,47.27,0
2353344.0,-0.004,-0.036,-0.003,-82.05,127.96,0
2353349.0,-0.026,-0.003,0.026,-4.29,44.91,0
2353354.0,-0.009,-0.008,0.002,-40.01,79.19,0
2353359.0,-0.016,-0.0,0.009,-1.0,60.97,0
2353364.0,0.015,-0.015,0.038,-19.92,-21.97,0
2353369.0,-0.009,-0.015,0.021,-33.01,22.85,0
2353374.0,-0.016,0.012,0.004,35.27,75.7,0
2353379.0,-0.004,-0.022,-0.027,-38.64,171.61,0
2353384.0,0.003,-0.022,-0.006,-73.77,-149.9,0
2353389.0,0.006,-0.003,0.002,-24.95,-73.3,0
2353394.0,-0.057,0.009,0.011,9.1,78.77,0
2353399.0,0.015,-0.0,0.006,-1.11,-66.91,0
2353404.0,-0.014,0.016,-0.029,26.89,155.26,0
2353409.0,0.008,0.002,0.016,6.61,-26.45,0
2353414.0,-0.016,-0.003,-0.003,-9.47,101.04,0
2353419.0,-0.028,-0.022,-0.008,-36.99,105.79,0
2353424.0,0.02,0.014,0.014,30.16,-55.63,0
2353429.0,-0.021,0.019,-0.001,42.21,91.98,0
2353434.0,0.008,0.019,-0.034,28.18,-166.88,0
2353439.0,-0.028,-0.005,-0.02,-8.47,125.43,0
2353444.0,-0.018,-0.0,-0.017,-0.72,133.6,0
2353449.0,-0.023,-0.01,-0.003,-22.97,97.66,0
2353454.0,-0.033,-0.005,0.011,-8.4,71.02,0
2353459.0,0.013,-0.019,-0.063,-16.86,-168.54,0
2353464.0,-0.011,-0.017,0.038,-23.53,16.55,0
2353469.0,-0.016,-0.0,0.002,-1.14,84.01,0
2353474.0,-0.002,-0.027,0.05,-28.26,1.84,0
2353479.0,0.01,-0.017,-0.006,-55.48,-117.96,0
2353484.0,0.013,-0.0,0.009,-1.18,-55.25,0
2353489.0,-0.018,-0.017,0.002,-42.82,84.78,0
2353494.0,-0.004,-0.003,0.028,-5.48,8.11,0
2353499.0,0.013,-0.003,0.047,-3.18,-15.15,0
2353504.0,-0.023,-0.005,0.011,-11.23,64.07,0
2353509.0,0.013,-0.015,-0.068,-12.02,-169.33,0
2353514.0,-0.009,0.004,-0.037,6.77,166.52,0
2353519.0,-0.028,0.016,0.03,21.71,42.57,0
2353524.0,-0.002,0.009,-0.02,24.91,175.41,0
2353529.0,-0.014,-0.0,0.028,-0.59,25.84,0
2353534.0,-0.018,-0.003,-0.022,-5.37,140.5,0
2353539.0,0.001,-0.01,0.006,-56.65,-7.04,0
2353544.0,0.001,-0.017,0.009,-62.49,-5.15,0
2353549.0,0.003,-0.039,0.033,-49.53,-5.56,0
2353554.0,0.001,-0.031,0.057,-28.99,-0.81,0
2353559.0,-0.004,-0.015,0.03,-25.59,7.48,0
2353564.0,-0.016,-0.027,-0.027,-40.32,149.46,0
2353569.0,-0.014,0.019,-0.015,42.87,138.03,0
2353574.0,0.013,-0.015,0.009,-43.38,-55.25,0
2353579.0,-0.021,-0.008,-0.008,-18.67,110.85,0
2353584.0,0.003,-0.0,0.006,-2.54,-26.28,0
2353589.0,-0.004,0.002,-0.001,27.1,100.22,0
2353594.0,-0.014,-0.015,-0.029,-24.36,155.26,0
2353599.0,-0.009,0.009,-0.003,44.82,109.52,0
2353604.0,0.003,0.012,0.016,35.47,-11.26,0
2353609.0,-0.011,0.007,-0.041,9.09,164.9,0
2353614.0,-0.014,-0.0,-0.01,-1.07,127.19,0
2353619.0,-0.006,0.014,-0.017,37.05,159.93,0
2353624.0,-0.014,-0.017,-0.001,-51.5,93.03,0
2353629.0,0.008,0.014,-0.025,28.45,-162.07,0
2353634.0,-0.014,0.012,0.016,29.01,40.22,0
2353639.0,0.01,0.016,0.021,35.24,-26.48,0
2353644.0,0.018,-0.005,-0.013,-13.27,-125.86,0
2353649.0,-0.028,-0.005,-0.01,-9.74,110.23,0
2353654.0,-0.006,0.019,-0.013,52.98,153.29,0
2353659.0,-0.006,0.009,-0.041,12.46,171.24,0
2353664.0,0.02,-0.034,0.014,-54.46,-55.63,0
2353669.0,0.01,0.021,0.018,45.1,-29.37,0
2353674.0,-0.018,0.019,-0.006,44.5,106.7,0
2353679.0,0.013,-0.039,-0.022,-56.4,-150.17,0
2353684.0,-0.011,-0.0,0.002,-1.62,81.47,0
2353689.0,-0.038,0.021,0.006,29.15,80.22,0
2353694.0,0.015,0.028,0.045,31.01,-18.71,0
2353699.0,-0.004,0.002,0.03,3.87,7.48,0
2353704.0,0.006,-0.019,-0.001,-73.87,-97.33,0
2353709.0,-0.03,-0.0,0.011,-0.57,69.64,0
2353714.0,-0.03,0.014,-0.034,17.07,138.47,0
2353719.0,-0.011,-0.003,-0.039,-3.82,164.02,0
2353724.0,0.008,-0.0,0.023,-0.74,-18.97,0
2353729.0,-0.028,-0.01,0.018,-16.47,56.58,0
2353734.0,-0.006,-0.017,-0.029,-29.54,167.77,0
2353739.0,-0.018,0.024,-0.001,52.13,92.24,0
2353744.0,-0.011,-0.015,-0.01,-44.02,132.66,0
2353749.0,-0.03,-0.015,-0.01,-24.63,108.75,0
2353754.0,-0.002,0.007,0.021,18.19,4.38,0
2353759.0,-0.011,-0.0,-0.029,-0.58,159.22,0
2353764.0,0.008,-0.024,0.03,-37.66,-14.71,0
2353769.0,0.001,0.007,0.018,20.4,-2.48,0
2353774.0,0.02,0.026,-0.02,42.73,-134.89,0
2353779.0,0.006,-0.022,0.028,-37.44,-11.28,0
2353784.0,0.003,-0.012,0.004,-67.18,-38.11,0
2353789.0,0.01,-0.048,-0.008,-74.86,-127.29,0
2353794.0,0.02,-0.003,-0.01,-6.89,-117.3,0
2353799.0,0.001,-0.022,-0.041,-27.83,-178.9,0
2353804.0,-0.002,0.007,0.033,11.81,2.79,0
2353809.0,0.032,-0.051,0.035,-46.8,-42.21,0
2353814.0,-0.004,-0.017,0.028,-31.12,8.11,0
2353819.0,0.006,0.014,0.018,36.1,-16.86,0
2353824.0,0.003,-0.01,-0.027,-19.96,-173.27,0
2353829.0,0.001,0.012,-0.017,33.66,-177.39,0
2353834.0,-0.011,-0.008,-0.032,-12.53,160.67,0
2353839.0,0.02,-0.012,0.016,-25.64,-51.2,0
2353844.0,-0.014,0.012,0.03,19.29,24.05,0
2353849.0,-0.018,0.021,-0.032,30.01,150.04,0
2353854.0,-0.021,-0.029,0.042,-31.62,26.09,0
2353859.0,0.001,-0.019,0.006,-71.51,-7.04,0
2353864.0,-0.002,-0.005,0.009,-29.57,10.22,0
2353869.0,-0.018,-0.008,0.006,-21.08,70.6,0
2353874.0,0.013,0.007,-0.001,28.22,-93.22,0
2353879.0,-0.011,0.019,0.011,49.9,44.8,0
2353884.0,-0.016,0.009,0.018,20.79,40.89,0
2353889.0,-0.002,-0.017,-0.01,-58.61,171.19,0
2353894.0,-0.021,-0.022,0.026,-33.56,39.01,0
2353899.0,-0.009,-0.034,0.004,-74.04,65.13,0
2353904.0,-0.03,-0.003,-0.008,-4.95,104.6,0
2353909.0,-0.018,-0.01,0.033,-14.75,29.23,0
2353914.0,0.003,0.014,-0.003,72.39,-134.28,0
2353919.0,-0.028,-0.01,-0.006,-19.17,101.15,0
2353924.0,0.01,0.004,0.002,23.04,-80.83,0
2353929.0,0.008,0.019,0.002,66.59,-78.14,0
2353934.0,0.006,0.007,-0.032,11.99,-170.05,0
2353939.0,-0.016,-0.01,-0.017,-22.69,137.6,0
2353944.0,-0.009,0.012,-0.013,37.06,145.32,0
2353949.0,0.003,0.021,-0.027,37.93,-173.27,0
2353954.0,-0.038,0.007,-0.01,10.01,105.35,0
2353959.0,-0.009,0.012,-0.025,23.99,160.41,0
2353964.0,-0.018,-0.01,0.011,-24.69,58.49,0
2353969.0,-0.011,0.009,0.018,23.24,31.22,0
2353974.0,-0.009,0.021,0.006,62.82,53.64,0
2353979.0,0.001,-0.012,0.004,-71.36,-11.1,0
2353984.0,-0.026,-0.0,-0.003,-0.71,96.95,0
2353989.0,-0.006,-0.034,0.018,-60.04,19.1,0
2353994.0,0.006,0.002,-0.008,12.1,-144.74,0
2353999.0,-0.018,-0.022,0.018,-40.05,44.88,0
2354004.0,0.001,0.009,-0.003,70.86,-165.62,0
2354009.0,-0.004,-0.017,-0.015,-47.58,165.18,0
2354014.0,-0.004,-0.008,0.014,-27.82,16.3,0
2354019.0,0.001,-0.022,-0.001,-87.19,-132.02,0
2354024.0,-0.009,-0.015,0.014,-42.14,32.75,0
2354029.0,-0.006,0.019,0.009,59.9,35.78,0
2354034.0,-0.004,-0.031,0.004,-79.73,44.44,0
2354039.0,-0.004,0.016,-0.013,51.02,162.54,0
2354044.0,0.001,0.016,0.006,68.39,-7.04,0
2354049.0,0.006,-0.005,-0.001,-42.2,-97.33,0
2354054.0,0.006,-0.036,-0.025,-55.09,-167.24,0
2354059.0,0.003,-0.01,-0.022,-23.75,-171.84,0
2354064.0,-0.002,-0.024,0.009,-69.65,10.22,0
2354069.0,0.02,-0.005,0.006,-13.69,-72.05,0
2354074.0,0.006,0.002,-0.013,8.51,-156.24,0
2354079.0,-0.002,-0.01,0.028,-19.43,3.26,0
2354084.0,-0.011,-0.008,0.004,-32.25,69.99,0
2354089.0,-0.011,-0.015,-0.013,-40.97,138.64,0
2354094.0,-0.011,0.016,-0.027,29.32,157.56,0
2354099.0,-0.023,0.009,0.004,21.5,80.03,0
2354104.0,-0.014,-0.015,0.016,-34.95,40.22,0
2354109.0,0.018,0.014,-0.013,32.96,-125.86,0
2354114.0,-0.011,-0.005,0.009,-19.71,51.59,0
2354119.0,-0.014,-0.029,-0.022,-48.09,148.65,0
2354124.0,-0.018,0.016,0.011,37.37,58.49,0
2354129.0,-0.014,0.004,0.014,13.08,44.83,0
2354134.0,0.003,0.002,0.021,5.62,-8.71,0
2354139.0,0.001,-0.003,-0.034,-4.53,-178.66,0
2354144.0,0.003,-0.031,-0.001,-84.06,-102.69,0
2354149.0,-0.009,-0.005,0.052,-5.54,9.59,0
2354154.0,-0.021,0.004,0.028,7.31,36.53,0
2354159.0,-0.002,-0.005,-0.034,-8.48,177.33,0
2354164.0,0.003,0.026,-0.006,76.25,-149.9,0
2354169.0,0.044,-0.01,0.014,-12.15,-72.73,0
2354174.0,0.018,0.007,-0.037,9.59,-154.39,0
2354179.0,-0.004,-0.027,-0.001,-81.35,100.22,0
2354184.0,-0.011,0.009,-0.003,38.6,105.57,0
2354189.0,-0.026,0.012,0.002,24.48,86.25,0
2354194.0,-0.006,-0.015,-0.039,-20.37,170.71,0
2354199.0,0.003,-0.031,-0.015,-63.88,-168.05,0
2354204.0,-0.002,-0.036,0.011,-72.58,8.07,0
2354209.0,0.008,-0.008,0.028,-14.44,-15.9,0
2354214.0,-0.023,-0.024,-0.027,-34.27,139.46,0
2354219.0,0.018,-0.01,-0.006,-28.27,-107.42,0
2354224.0,-0.04,0.007,0.028,8.01,54.93,0
2354229.0,-0.016,0.009,0.006,28.26,67.95,0
2354234.0,-0.014,-0.024,0.03,-36.08,24.05,0
2354239.0,0.001,-0.017,0.009,-62.49,-5.15,0
2354244.0,-0.002,-0.008,0.014,-28.64,6.67,0
2354249.0,-0.021,0.026,-0.025,38.91,139.92,0
2354254.0,0.008,-0.022,-0.051,-22.96,-171.11,0
2354259.0,0.008,0.004,0.026,9.46,-17.3,0
2354264.0,0.001,0.002,-0.001,62.63,-132.02,0
2354269.0,-0.023,-0.003,0.026,-4.49,42.1,0
2354274.0,0.01,-0.003,-0.044,-3.45,-166.68,0
2354279.0,-0.035,-0.017,0.018,-23.3,62.3,0
2354284.0,-0.006,0.026,0.018,53.14,19.1,0
2354289.0,0.003,0.031,0.014,65.54,-13.17,0
2354294.0,-0.002,0.021,0.002,83.78,43.61,0
2354299.0,-0.014,0.002,-0.006,8.07,112.09,0
2354304.0,-0.03,-0.027,0.009,-40.15,73.72,0
2354309.0,0.003,-0.012,-0.034,-19.67,-174.67,0
2354314.0,-0.004,0.028,0.026,47.62,8.85,0
2354319.0,-0.026,-0.0,0.038,-0.4,34.19,0
2354324.0,0.032,-0.01,-0.008,-16.75,-103.9,0
2354329.0,-0.023,-0.003,-0.027,-4.36,139.46,0
2354334.0,0.008,0.002,0.042,2.75,-10.67,0
2354339.0,0.001,-0.015,-0.001,-85.82,-132.02,0
2354344.0,0.006,-0.0,-0.017,-1.0,-162.27,0
2354349.0,-0.021,0.012,-0.015,24.43,126.02,0
2354354.0,0.001,-0.029,-0.041,-35.04,-178.9,0
2354359.0,-0.004,0.021,0.002,78.48,67.22,0
2354364.0,0.006,-0.0,0.047,-0.39,-6.75,0
2354369.0,0.001,-0.019,0.006,-71.51,-7.04,0
2354374.0,0.003,-0.003,-0.034,-4.51,-174.67,0
2354379.0,-0.021,0.002,0.016,4.52,52.29,0
2354384.0,0.006,0.007,-0.015,23.11,-159.68,0
2354389.0,-0.016,0.007,-0.022,14.06,144.37,0
2354394.0,-0.026,0.007,-0.037,8.74,145.12,0
2354399.0,-0.016,-0.003,0.04,-3.61,21.76,0
2354404.0,-0.021,-0.017,-0.013,-35.08,121.45,0
2354409.0,-0.014,-0.019,0.014,-45.34,44.83,0
2354414.0,0.03,0.002,-0.006,3.95,-100.57,0
2354419.0,-0.028,0.009,-0.008,17.69,105.79,0
2354424.0,-0.009,-0.015,0.028,-26.58,17.4,0
2354429.0,-0.009,0.014,0.035,21.17,14.01,0
2354434.0,-0.006,-0.024,0.028,-40.18,12.84,0
2354439.0,0.015,-0.027,-0.008,-57.32,-117.52,0
2354444.0,-0.004,-0.022,-0.037,-30.69,173.78,0
2354449.0,-0.009,-0.019,0.011,-53.76,37.96,0
2354454.0,0.01,-0.015,0.038,-20.64,-15.43,0
2354459.0,0.006,-0.005,-0.037,-7.85,-171.33,0
2354464.0,-0.028,-0.003,-0.013,-5.05,114.43,0
2354469.0,-0.035,-0.024,-0.003,-34.54,95.07,0
2354474.0,-0.002,0.004,-0.006,37.93,163.84,0
2354479.0,-0.002,-0.017,0.014,-51.18,6.67,0
2354484.0,0.003,0.012,0.038,17.16,-4.85,0
2354489.0,0.018,0.019,0.011,42.09,-57.34,0
2354494.0,-0.021,-0.034,0.006,-57.29,72.7,0
2354499.0,-0.002,0.012,-0.041,15.7,177.79,0
2354504.0,0.003,0.007,-0.008,38.85,-158.0,0
2354509.0,-0.018,-0.0,-0.013,-0.82,124.66,0
2354514.0,-0.018,-0.012,-0.006,-32.67,106.7,0
2354519.0,0.001,0.004,0.002,67.45,-25.47,0
2354524.0,-0.004,0.014,-0.013,46.56,162.54,0
2354529.0,0.003,-0.003,-0.017,-8.68,-169.65,0
2354534.0,-0.028,-0.01,0.016,-17.08,60.13,0
2354539.0,-0.016,0.026,0.014,51.09,49.47,0
2354544.0,0.008,-0.036,-0.01,-70.22,-142.22,0
2354549.0,0.013,0.009,0.021,20.75,-31.51,0
2354554.0,0.015,-0.0,0.014,-0.9,-48.01,0
2354559.0,-0.006,0.024,0.004,72.23,57.49,0
2354564.0,0.008,-0.003,-0.006,-15.63,-124.61,0
2354569.0,0.003,0.021,0.045,25.31,-4.08,0
2354574.0,0.02,0.002,0.016,4.63,-51.2,0
2354579.0,0.018,-0.01,-0.001,-29.39,-92.35,0
2354584.0,-0.016,-0.0,-0.044,-0.39,159.98,0
2354589.0,0.039,0.007,-0.039,7.08,-134.94,0
2354594.0,-0.009,0.016,0.002,61.47,79.19,0
2354599.0,-0.018,-0.01,-0.034,-14.29,151.8,0
2354604.0,0.003,-0.0,-0.02,-0.91,-170.87,0
2354609.0,-0.018,-0.019,0.006,-45.02,70.6,0
2354614.0,0.02,-0.003,-0.008,-7.21,-111.6,0
2354619.0,-0.016,0.002,-0.006,7.01,109.04,0
2354624.0,-0.021,0.016,-0.025,27.03,139.92,0
2354629.0,-0.004,-0.003,-0.001,-33.79,100.22,0
2354634.0,-0.009,-0.015,-0.058,-14.01,171.42,0
2354639.0,-0.004,-0.008,-0.032,-13.16,172.86,0
2354644.0,-0.033,-0.015,0.016,-21.95,63.88,0
2354649.0,-0.014,0.016,0.014,40.51,44.83,0
2354654.0,-0.011,-0.008,0.021,-17.61,28.21,0
2354659.0,-0.049,-0.015,0.035,-13.6,54.58,0
2354664.0,-0.026,-0.031,0.004,-50.57,80.95,0
2354669.0,0.018,-0.031,-0.008,-58.52,-114.23,0
2354674.0,-0.002,-0.01,0.002,-76.84,43.61,0
2354679.0,0.003,0.012,0.006,58.25,-26.28,0
2354684.0,0.006,0.009,0.014,32.12,-22.26,0
2354689.0,0.006,-0.022,0.009,-64.41,-32.24,0
2354694.0,-0.009,-0.003,-0.017,-7.9,153.33,0
2354699.0,-0.011,-0.005,-0.022,-11.59,153.35,0
2354704.0,0.006,-0.003,-0.01,-13.04,-151.52,0
2354709.0,-0.004,-0.024,-0.006,-74.34,144.08,0
2354714.0,-0.033,-0.012,0.033,-14.86,44.93,0
2354719.0,-0.009,-0.019,0.009,-57.36,44.74,0
2354724.0,-0.002,0.021,-0.015,54.45,173.96,0
2354729.0,-0.006,0.024,-0.034,34.15,169.44,0
2354734.0,-0.038,0.016,-0.041,16.39,137.84,0
2354739.0,-0.016,0.014,0.023,26.49,34.5,0
2354744.0,-0.011,-0.005,-0.015,-15.22,143.47,0
2354749.0,-0.004,-0.008,0.018,-21.69,12.21,0
2354754.0,-0.006,0.009,-0.003,52.5,115.99,0
2354759.0,-0.028,-0.019,0.004,-34.6,81.71,0
2354764.0,0.001,0.007,-0.037,10.61,-178.75,0
2354769.0,-0.004,-0.015,0.014,-45.93,16.3,0
2354774.0,-0.002,-0.005,0.023,-12.38,3.93,0
2354779.0,-0.011,0.007,-0.01,24.31,132.66,0
2354784.0,-0.023,-0.01,-0.001,-23.14,91.78,0
2354789.0,-0.014,0.012,0.03,19.29,24.05,0
2354794.0,0.022,0.012,-0.001,27.53,-91.84,0
2354799.0,0.001,-0.003,-0.013,-12.05,-176.4,0
2354804.0,-0.009,0.007,0.023,15.45,20.71,0
2354809.0,0.008,-0.005,0.011,-20.32,-35.35,0
2354814.0,-0.028,0.014,0.033,18.06,40.42,0
2354819.0,-0.009,-0.024,0.042,-29.28,11.7,0
2354824.0,0.008,0.007,-0.003,38.7,-111.31,0
2354829.0,-0.014,0.028,0.016,53.52,40.22,0
2354834.0,0.032,-0.015,0.026,-19.74,-51.25,0
2354839.0,0.006,0.036,0.016,64.49,-19.2,0
2354844.0,-0.011,0.012,-0.051,12.58,167.64,0
2354849.0,-0.026,-0.022,-0.037,-26.09,145.12,0
2354854.0,0.013,-0.008,0.009,-25.77,-55.25,0
2354859.0,-0.016,0.012,-0.02,24.57,141.23,0
2354864.0,0.02,-0.012,-0.001,-31.62,-92.06,0
2354869.0,0.018,-0.019,-0.022,-34.48,-141.74,0
2354874.0,-0.009,0.007,-0.051,7.56,170.23,0
2354879.0,0.001,-0.031,-0.027,-49.28,-178.31,0
2354884.0,-0.038,-0.041,-0.008,-46.94,101.9,0
2354889.0,-0.028,0.002,0.004,4.2,81.71,0
2354894.0,0.013,0.014,0.035,20.56,-19.94,0
2354899.0,0.001,0.009,0.042,12.32,-1.08,0
2354904.0,0.015,-0.003,-0.02,-6.2,-142.66,0
2354909.0,-0.014,-0.008,0.018,-18.15,36.35,0
2354914.0,-0.033,-0.003,0.009,-4.58,74.85,0
2354919.0,-0.023,-0.019,0.011,-37.11,64.07,0
2354924.0,-0.04,0.009,-0.013,12.47,107.64,0
2354929.0,-0.021,0.012,-0.006,28.49,104.86,0
2354934.0,0.013,-0.019,-0.001,-56.7,-93.22,0
2354939.0,0.02,0.014,-0.022,25.16,-138.14,0
2354944.0,0.015,-0.003,-0.017,-6.69,-139.06,0
2354949.0,-0.026,-0.005,-0.013,-10.15,116.42,0
2354954.0,0.006,0.007,0.004,44.8,-53.93,0
2354959.0,0.006,-0.005,0.014,-19.11,-22.26,0
2354964.0,0.003,-0.022,-0.029,-36.43,-173.81,0
2354969.0,0.001,0.009,-0.034,15.13,-178.66,0
2354974.0,-0.004,-0.003,-0.008,-17.04,153.2,0
2354979.0,-0.002,0.012,0.002,78.77,43.61,0
2354984.0,0.003,-0.003,-0.02,-7.68,-170.87,0
2354989.0,0.008,0.014,0.018,34.96,-23.41,0
2354994.0,-0.014,-0.008,-0.008,-25.54,120.22,0
2354999.0,-0.028,-0.0,-0.027,-0.47,134.09,0
2355004.0,0.003,-0.027,-0.001,-83.0,-102.69,0
2355009.0,0.006,-0.029,0.011,-66.61,-26.4,0
2355014.0,-0.004,-0.012,0.009,-51.67,24.25,0
2355019.0,-0.03,0.004,-0.01,7.94,108.75,0
2355024.0,0.034,-0.003,-0.037,-3.09,-136.87,0
2355029.0,-0.006,-0.027,-0.015,-58.43,157.06,0
2355034.0,0.025,-0.022,0.006,-40.54,-75.36,0
2355039.0,-0.011,-0.01,-0.02,-23.46,150.65,0
2355044.0,-0.03,-0.008,0.004,-13.78,82.36,0
2355049.0,0.022,0.007,0.038,8.92,-30.73,0
2355054.0,0.001,0.007,-0.001,81.1,-132.02,0
2355059.0,0.01,0.009,-0.006,38.24,-117.96,0
2355064.0,-0.006,-0.017,0.021,-38.09,17.04,0
2355069.0,0.015,0.016,0.016,36.68,-43.39,0
2355074.0,0.003,-0.008,-0.001,-66.43,-102.69,0
2355079.0,0.001,0.004,-0.022,11.34,-177.95,0
2355084.0,0.032,-0.005,0.002,-9.08,-87.0,0
2355089.0,-0.016,-0.012,0.014,-30.34,49.47,0
2355094.0,-0.038,-0.017,0.016,-22.72,66.85,0
2355099.0,-0.018,-0.017,0.038,-22.21,26.03,0
2355104.0,-0.002,-0.017,0.023,-36.27,3.93,0
2355109.0,0.008,-0.027,-0.017,-54.22,-155.46,0
2355114.0,0.001,-0.017,-0.037,-24.99,-178.75,0
2355119.0,-0.014,-0.01,-0.01,-30.16,127.19,0
2355124.0,0.003,-0.019,0.016,-49.97,-11.26,0
2355129.0,-0.002,0.016,-0.013,52.12,172.83,0
2355134.0,0.015,-0.017,-0.013,-40.82,-129.92,0
2355139.0,-0.028,0.004,-0.003,9.04,96.36,0
2355144.0,0.015,-0.036,-0.001,-67.27,-92.72,0
2355149.0,-0.014,-0.008,-0.039,-10.29,160.83,0
2355154.0,-0.014,0.012,0.018,26.98,36.35,0
2355159.0,-0.018,-0.008,0.028,-12.63,33.24,0
2355164.0,-0.042,-0.017,-0.013,-21.14,106.7,0
2355169.0,-0.002,0.004,-0.022,11.32,175.9,0
2355174.0,-0.016,-0.003,0.011,-7.91,54.82,0
2355179.0,0.008,-0.019,0.004,-65.3,-62.98,0
2355184.0,-0.021,-0.008,-0.006,-19.26,104.86,0
2355189.0,0.001,0.009,0.002,78.66,-25.47,0
2355194.0,-0.011,-0.036,-0.003,-72.25,105.57,0
2355199.0,0.025,-0.039,-0.001,-57.35,-91.66,0
2355204.0,-0.038,-0.031,0.014,-38.23,70.01,0
2355209.0,-0.002,-0.005,0.038,-7.73,2.43,0
2355214.0,0.018,-0.015,0.028,-23.95,-32.08,0
2355219.0,-0.009,-0.017,0.021,-37.07,22.85,0
2355224.0,-0.002,-0.015,-0.001,-83.2,114.25,0
2355229.0,0.001,-0.034,-0.025,-53.9,-178.15,0
2355234.0,-0.009,-0.003,0.014,-9.49,32.75,0
2355239.0,-0.018,0.002,0.03,3.34,31.12,0
2355244.0,-0.006,0.002,0.006,12.87,44.65,0
2355249.0,0.013,0.002,-0.01,7.21,-128.88,0
2355254.0,-0.011,-0.012,0.006,-43.6,59.95,0
2355259.0,-0.006,-0.017,-0.006,-63.72,130.78,0
2355264.0,0.008,-0.022,-0.017,-48.7,-155.46,0
2355269.0,0.006,-0.003,0.03,-5.02,-10.41,0
2355274.0,-0.016,-0.017,0.002,-46.78,84.01,0
2355279.0,-0.026,0.002,0.006,4.5,75.8,0
2355284.0,-0.016,-0.005,0.002,-17.65,84.01,0
2355289.0,-0.038,-0.008,-0.044,-7.41,139.43,0
2355294.0,-0.011,-0.01,-0.001,-41.47,93.68,0
2355299.0,0.001,-0.01,-0.003,-72.01,-165.62,0
2355304.0,-0.011,-0.019,0.014,-47.83,39.31,0
2355309.0,-0.006,-0.019,-0.006,-66.59,130.78,0
2355314.0,0.01,0.012,0.021,26.6,-26.48,0
2355319.0,0.003,0.016,-0.029,29.03,-173.81,0
2355324.0,0.001,-0.01,-0.008,-51.25,-174.23,0
2355329.0,-0.004,-0.0,0.021,-0.86,10.85,0
2355334.0,-0.002,-0.017,0.016,-46.65,5.68,0
2355339.0,-0.002,0.004,-0.02,12.64,175.41,0
2355344.0,-0.011,0.004,-0.01,16.39,132.66,0
2355349.0,-0.014,0.012,-0.006,38.51,112.09,0
2355354.0,-0.011,-0.022,0.009,-56.89,51.59,0
2355359.0,-0.021,-0.008,0.016,-15.96,52.29,0
2355364.0,-0.016,-0.008,0.018,-17.1,40.89,0
2355369.0,-0.002,-0.022,-0.003,-80.91,152.85,0
2355374.0,-0.009,-0.012,0.004,-51.79,65.13,0
2355379.0,0.025,-0.048,0.004,-62.52,-80.66,0
2355384.0,0.006,-0.008,0.002,-52.14,-73.3,0
2355389.0,0.015,0.002,0.002,7.75,-83.69,0
2355394.0,-0.006,-0.034,-0.008,-73.29,141.06,0
2355399.0,-0.006,0.014,-0.008,54.12,141.06,0
2355404.0,-0.006,-0.029,-0.029,-43.95,167.77,0
2355409.0,-0.018,-0.0,-0.01,-0.87,119.29,0
2355414.0,-0.011,0.009,0.002,39.33,81.47,0
2355419.0,-0.002,-0.005,-0.013,-21.77,172.83,0
2355424.0,-0.016,0.004,0.035,6.6,24.4,0
2355429.0,0.025,0.009,-0.003,20.37,-97.17,0
2355434.0,-0.004,-0.003,-0.015,-9.87,165.18,0
2355439.0,-0.014,-0.005,0.028,-9.32,25.84,0
2355444.0,-0.002,0.012,-0.008,55.32,168.58,0
2355449.0,-0.03,-0.01,-0.015,-16.29,116.45,0
2355454.0,-0.011,-0.012,-0.017,-30.65,147.41,0
2355459.0,-0.028,-0.046,-0.015,-55.28,118.37,0
2355464.0,0.001,-0.008,-0.027,-15.49,-178.31,0
2355469.0,-0.016,-0.058,-0.006,-73.71,109.04,0
2355474.0,0.015,-0.012,0.004,-38.05,-74.98,0
2355479.0,-0.059,-0.003,0.03,-2.34,62.76,0
2355484.0,0.049,-0.017,0.021,-17.88,-66.84,0
2355489.0,-0.018,0.028,0.04,32.85,24.66,0
2355494.0,0.02,-0.041,0.002,-63.98,-85.2,0
2355499.0,-0.028,0.019,0.004,33.71,81.71,0
2355504.0,-0.035,-0.027,0.016,-34.62,65.45,0
2355509.0,0.01,0.016,-0.02,36.25,-152.43,0
2355514.0,-0.028,0.007,-0.003,13.72,96.36,0
2355519.0,-0.03,-0.039,-0.061,-29.69,153.41,0
2355524.0,-0.016,0.009,0.023,18.19,34.5,0
2355529.0,-0.045,-0.027,-0.01,-30.17,102.97,0
2355534.0,-0.03,0.004,-0.015,7.52,116.45,0
2355539.0,-0.014,-0.008,0.016,-19.65,40.22,0
2355544.0,-0.004,-0.0,-0.02,-0.9,168.65,0
2355549.0,-0.016,-0.003,0.021,-5.9,37.46,0
2355554.0,0.015,-0.027,-0.01,-55.49,-124.18,0
2355559.0,0.013,-0.017,0.009,-47.7,-55.25,0
2355564.0,-0.011,-0.019,0.009,-53.79,51.59,0
2355569.0,-0.009,-0.031,0.011,-65.59,37.96,0
2355574.0,0.008,-0.003,0.004,-16.85,-62.98,0
2355579.0,-0.018,-0.022,-0.017,-40.79,133.6,0
2355584.0,-0.009,-0.015,0.011,-45.82,37.96,0
2355589.0,-0.021,-0.015,-0.029,-22.18,144.83,0
2355594.0,0.018,0.002,-0.01,5.82,-120.39,0
2355599.0,0.022,-0.008,0.018,-14.52,-50.48,0
2355604.0,-0.006,-0.041,0.028,-54.99,12.84,0
2355609.0,0.025,0.009,-0.003,20.37,-97.17,0
2355614.0,-0.038,0.031,0.004,39.23,83.81,0
2355619.0,-0.006,-0.008,-0.006,-41.66,130.78,0
2355624.0,-0.016,0.002,-0.049,2.32,161.82,0
2355629.0,0.003,0.021,0.03,34.77,-5.99,0
2355634.0,-0.026,0.016,-0.001,32.76,91.61,0
2355639.0,-0.006,-0.036,0.006,-75.92,44.65,0
2355644.0,-0.009,-0.041,-0.003,-77.21,109.52,0
2355649.0,-0.011,-0.019,-0.032,-29.99,160.67,0
2355654.0,-0.009,-0.017,0.014,-46.47,32.75,0
2355659.0,-0.006,0.021,-0.003,71.5,115.99,0
2355664.0,-0.011,-0.005,0.028,-9.61,21.75,0
2355669.0,0.003,0.012,-0.037,17.58,-175.02,0
2355674.0,-0.023,-0.008,0.009,-16.84,69.06,0
2355679.0,-0.002,-0.008,-0.029,-14.27,176.9,0
2355684.0,-0.009,-0.0,-0.022,-0.76,158.48,0
2355689.0,-0.006,0.009,0.002,54.51,75.29,0
2355694.0,0.02,-0.003,0.033,-4.04,-31.31,0
2355699.0,-0.002,0.002,0.004,25.39,21.42,0
2355704.0,0.02,0.024,-0.017,41.69,-131.22,0
2355709.0,0.013,-0.0,0.002,-1.42,-82.52,0
2355714.0,0.025,0.004,-0.034,6.04,-144.15,0
2355719.0,-0.002,0.002,0.026,4.62,3.57,0
2355724.0,0.003,0.016,-0.017,42.78,-169.65,0
2355729.0,-0.018,0.007,-0.006,19.7,106.7,0
2355734.0,0.02,-0.008,-0.006,-19.92,-105.43,0
2355739.0,-0.002,0.009,-0.015,31.4,173.96,0
2355744.0,-0.018,0.012,-0.008,30.24,113.29,0
2355749.0,0.025,0.002,-0.022,3.57,-131.99,0
2355754.0,0.001,0.014,0.002,82.47,-25.47,0
2355759.0,-0.023,0.021,-0.034,27.19,145.94,0
2355764.0,0.003,0.009,-0.027,18.77,-173.27,0
2355769.0,-0.021,-0.036,0.002,-60.12,85.38,0
2355774.0,0.006,-0.008,-0.003,-49.55,-119.13,0
2355779.0,0.003,-0.043,-0.022,-62.61,-171.84,0
2355784.0,0.008,0.014,0.004,57.47,-62.98,0
2355789.0,-0.033,0.004,-0.063,3.6,152.54,0
2355794.0,-0.026,-0.0,-0.008,-0.68,107.19,0
2355799.0,0.001,0.004,-0.022,11.34,-177.95,0
2355804.0,-0.011,0.009,0.026,18.33,23.56,0
2355809.0,0.003,-0.015,-0.003,-73.11,-134.28,0
2355814.0,-0.002,0.024,0.014,59.82,6.67,0
2355819.0,-0.023,0.002,-0.034,2.87,145.94,0
2355824.0,0.006,0.014,-0.02,34.23,-164.3,0
2355829.0,-0.026,0.014,-0.017,24.41,124.39,0
2355834.0,0.015,0.007,0.002,24.22,-83.69,0
2355839.0,-0.004,-0.0,-0.01,-1.66,158.82,0
2355844.0,0.008,-0.022,-0.003,-68.61,-111.31,0
2355849.0,-0.023,0.007,-0.046,7.56,153.4,0
2355854.0,0.006,-0.012,-0.01,-46.38,-151.52,0
2355859.0,-0.016,-0.005,0.059,-4.77,15.1,0
2355864.0,-0.016,0.002,0.04,2.76,21.76,0
2355869.0,-0.045,-0.003,-0.013,-3.34,105.85,0
2355874.0,-0.023,-0.048,-0.02,-57.67,130.65,0
2355879.0,-0.04,0.009,0.023,11.34,59.8,0
2355884.0,0.022,0.002,-0.008,5.0,-109.47,0
2355889.0,-0.004,-0.012,0.002,-70.6,67.22,0
2355894.0,-0.011,0.007,-0.003,30.61,105.57,0
2355899.0,-0.014,0.002,0.038,2.97,19.85,0
2355904.0,-0.006,0.002,0.002,17.45,75.29,0
2355909.0,0.003,-0.022,0.006,-71.75,-26.28,0
2355914.0,-0.004,-0.012,-0.015,-38.23,165.18,0
2355919.0,-0.018,-0.022,-0.02,-38.95,137.27,0
2355924.0,-0.03,-0.015,-0.025,-20.59,129.12,0
2355929.0,-0.011,0.021,-0.01,54.41,132.66,0
2355934.0,-0.035,0.004,-0.015,6.67,113.25,0
2355939.0,-0.047,-0.022,0.014,-24.04,73.84,0
2355944.0,0.041,-0.036,-0.013,-39.86,-107.0,0
2355949.0,-0.016,0.002,0.028,3.68,29.68,0
2355954.0,0.018,-0.012,-0.01,-31.13,-120.39,0
2355959.0,-0.016,0.002,-0.022,4.33,144.37,0
2355964.0,-0.014,0.009,0.038,13.04,19.85,0
2355969.0,-0.006,0.012,-0.006,54.11,130.78,0
2355974.0,-0.004,-0.024,-0.003,-78.22,127.96,0
2355979.0,0.006,-0.017,0.021,-38.38,-15.01,0
2355984.0,0.049,0.05,-0.01,45.11,-101.94,0
2355989.0,-0.002,-0.017,0.04,-23.11,2.29,0
2355994.0,-0.011,-0.0,-0.003,-1.58,105.57,0
2355999.0,0.01,-0.015,-0.025,-28.76,-157.18,0
2356004.0,-0.03,-0.008,0.014,-12.71,65.77,0
2356009.0,0.015,0.004,-0.001,16.4,-92.72,0
2356014.0,-0.023,-0.017,0.002,-36.35,85.86,0
2356019.0,-0.018,-0.027,-0.025,-40.93,143.34,0
2356024.0,-0.009,0.024,0.021,46.26,22.85,0
2356029.0,-0.023,0.007,-0.046,7.56,153.4,0
2356034.0,-0.028,0.028,-0.025,37.33,131.44,0
2356039.0,-0.045,0.024,-0.008,27.5,100.03,0
2356044.0,0.018,0.007,-0.029,11.32,-149.2,0
2356049.0,-0.011,-0.012,0.054,-12.49,11.62,0
2356054.0,-0.004,0.009,0.002,64.94,67.22,0
2356059.0,-0.004,-0.017,-0.02,-40.12,168.65,0
2356064.0,-0.021,0.024,-0.029,33.25,144.83,0
2356069.0,-0.018,0.009,0.021,18.44,41.39,0
2356074.0,0.006,0.021,0.009,63.74,-32.24,0
2356079.0,-0.009,0.016,0.009,52.82,44.74,0
2356084.0,-0.009,0.007,-0.02,17.53,156.17,0
2356089.0,0.01,-0.019,-0.01,-53.11,-134.78,0
2356094.0,-0.009,-0.005,0.018,-14.04,25.46,0
2356099.0,0.01,-0.012,-0.02,-28.73,-152.43,0
2356104.0,-0.011,0.009,-0.001,39.59,93.68,0
2356109.0,-0.014,0.016,0.006,47.57,64.52,0
2356114.0,-0.009,-0.024,-0.049,-26.16,169.76,0
2356119.0,-0.023,0.016,0.021,27.83,48.01,0
2356124.0,-0.006,-0.046,-0.017,-67.89,159.93,0
2356129.0,-0.014,0.004,0.035,6.76,21.08,0
2356134.0,-0.035,-0.019,-0.025,-24.41,125.08,0
2356139.0,-0.023,-0.005,0.026,-8.42,42.1,0
2356144.0,0.02,-0.005,-0.037,-6.98,-151.43,0
2356149.0,-0.054,-0.008,0.014,-7.64,75.89,0
2356154.0,0.003,-0.029,0.004,-79.9,-38.11,0
2356159.0,0.006,0.002,-0.02,5.74,-164.3,0
2356164.0,-0.002,-0.003,0.011,-13.43,8.07,0
2356169.0,0.008,-0.0,0.045,-0.4,-10.11,0
2356174.0,-0.011,-0.017,0.035,-24.82,17.61,0
2356179.0,-0.016,-0.0,0.006,-1.06,67.95,0
2356184.0,0.003,0.007,-0.01,32.49,-162.77,0
2356189.0,0.001,-0.012,-0.01,-49.96,-175.57,0
2356194.0,-0.04,-0.024,0.016,-29.43,68.1,0
2356199.0,-0.006,-0.024,0.006,-69.47,44.65,0
2356204.0,-0.011,-0.012,0.021,-27.47,28.21,0
2356209.0,-0.033,-0.019,0.002,-30.72,87.07,0
2356214.0,-0.006,0.016,0.009,56.41,35.78,0
2356219.0,-0.004,0.012,0.014,39.34,16.3,0
2356224.0,-0.004,-0.008,-0.025,-16.71,170.81,0
2356229.0,0.02,-0.015,-0.003,-36.02,-98.87,0
2356234.0,0.01,-0.0,-0.008,-1.4,-127.29,0
2356239.0,-0.018,0.007,-0.015,16.11,129.41,0
2356244.0,0.008,-0.008,-0.017,-21.33,-155.46,0
2356249.0,0.003,0.002,-0.051,2.33,-176.42,0
2356254.0,0.001,-0.053,-0.041,-51.98,-178.9,0
2356259.0,-0.009,-0.005,0.047,-6.08,10.54,0
2356264.0,0.01,-0.015,0.03,-24.56,-18.84,0
2356269.0,-0.021,-0.005,0.03,-7.9,34.31,0
2356274.0,0.008,0.004,0.016,14.01,-26.45,0
2356279.0,-0.006,0.007,-0.001,46.89,96.43,0
2356284.0,-0.006,-0.005,-0.006,-31.21,130.78,0
2356289.0,-0.014,-0.003,0.009,-9.51,56.86,0
2356294.0,0.02,-0.043,0.011,-62.18,-60.58,0
2356299.0,-0.009,-0.005,0.03,-9.17,16.1,0
2356304.0,0.013,0.007,-0.013,20.87,-134.82,0
2356309.0,-0.002,-0.012,0.004,-70.42,21.42,0
2356314.0,-0.006,0.004,0.03,8.19,11.86,0
2356319.0,0.01,0.004,-0.006,20.83,-117.96,0
2356324.0,-0.006,-0.024,-0.003,-73.68,115.99,0
2356329.0,-0.018,0.009,-0.003,26.44,99.62,0
2356334.0,-0.002,-0.031,-0.032,-44.6,177.13,0
2356339.0,-0.018,0.026,0.018,45.0,44.88,0
2356344.0,-0.035,-0.029,0.009,-38.73,75.84,0
2356349.0,0.018,-0.017,0.006,-42.39,-69.79,0
2356354.0,-0.023,-0.015,0.016,-27.54,55.27,0
2356359.0,0.013,-0.003,0.014,-8.26,-43.1,0
2356364.0,0.003,-0.039,-0.003,-83.42,-134.28,0
2356369.0,0.013,0.033,0.028,47.16,-24.51,0
2356374.0,-0.006,0.002,0.011,9.11,29.57,0
2356379.0,-0.03,0.007,-0.025,9.96,129.12,0
2356384.0,0.01,-0.043,0.011,-70.58,-42.68,0
2356389.0,-0.028,0.007,0.023,10.7,50.26,0
2356394.0,0.015,0.004,-0.039,6.09,-158.77,0
2356399.0,-0.011,0.016,-0.006,52.85,116.24,0
2356404.0,-0.014,-0.0,0.016,-0.87,40.22,0
2356409.0,-0.011,-0.034,0.023,-52.71,25.69,0
2356414.0,-0.006,-0.019,-0.013,-53.89,153.29,0
2356419.0,-0.018,-0.024,-0.001,-52.87,92.24,0
2356424.0,0.01,0.021,-0.032,32.37,-161.95,0
2356429.0,-0.004,-0.01,-0.001,-67.72,100.22,0
2356434.0,0.01,-0.0,-0.044,-0.41,-166.68,0
2356439.0,0.008,-0.027,0.011,-62.64,-35.35,0
2356444.0,-0.018,0.002,-0.001,6.44,92.24,0
2356449.0,-0.016,0.019,-0.017,38.51,137.6,0
2356454.0,-0.006,-0.027,-0.017,-55.08,159.93,0
2356459.0,-0.006,0.002,-0.015,7.22,157.06,0
2356464.0,-0.033,-0.0,0.004,-0.55,82.91,0
2356469.0,-0.004,-0.029,0.014,-63.92,16.3,0
2356474.0,-0.014,-0.005,0.016,-13.66,40.22,0
2356479.0,0.003,0.014,-0.008,58.75,-158.0,0
2356484.0,-0.011,-0.027,0.04,-32.7,15.61,0
2356489.0,0.018,-0.027,-0.02,-45.15,-138.54,0
2356494.0,-0.023,-0.017,-0.008,-34.93,108.85,0
2356499.0,0.006,-0.027,0.045,-30.57,-7.11,0
2356504.0,-0.016,0.024,0.028,36.23,29.68,0
2356509.0,-0.03,-0.01,-0.01,-17.17,108.75,0
2356514.0,-0.002,-0.015,-0.001,-83.2,114.25,0
2356519.0,-0.009,-0.005,-0.01,-20.68,139.55,0
2356524.0,0.008,-0.008,-0.003,-41.21,-111.31,0
2356529.0,-0.023,-0.024,0.045,-25.71,27.34,0
2356534.0,-0.014,-0.012,-0.006,-40.01,112.09,0
2356539.0,-0.018,-0.027,-0.006,-54.29,106.7,0
2356544.0,-0.002,-0.019,-0.025,-38.24,176.3,0
2356549.0,-0.006,-0.0,-0.001,-2.84,96.43,0
2356554.0,-0.026,-0.0,0.002,-0.71,86.25,0
2356559.0,0.006,-0.012,0.009,-49.57,-32.24,0
2356564.0,-0.03,-0.022,0.004,-35.55,82.36,0
2356569.0,0.008,-0.024,-0.017,-51.62,-155.46,0
2356574.0,0.001,-0.019,-0.015,-52.2,-176.97,0
2356579.0,0.003,-0.043,-0.017,-67.74,-169.65,0
2356584.0,-0.004,-0.034,0.004,-80.44,44.44,0
2356589.0,0.006,-0.036,0.014,-67.86,-22.26,0
2356594.0,0.018,0.004,-0.02,9.57,-138.54,0
2356599.0,-0.026,0.024,0.014,39.21,61.88,0
2356604.0,-0.006,-0.036,-0.017,-62.82,159.93,0
2356609.0,-0.006,0.007,-0.013,25.79,153.29,0
2356614.0,-0.014,0.007,-0.01,21.95,127.19,0
2356619.0,-0.004,-0.003,0.009,-15.6,24.25,0
2356624.0,-0.002,0.002,0.016,7.33,5.68,0
2356629.0,-0.006,-0.01,0.038,-14.55,9.64,0
2356634.0,-0.052,0.007,-0.025,6.81,115.43,0
2356639.0,0.013,-0.027,-0.006,-62.45,-113.33,0
2356644.0,0.02,0.007,-0.006,18.35,-105.43,0
2356649.0,0.01,-0.005,0.006,-22.68,-58.08,0
2356654.0,0.008,0.007,0.028,13.26,-15.9,0
2356659.0,0.003,0.004,-0.003,45.07,-134.28,0
2356664.0,-0.026,-0.003,0.004,-5.99,80.95,0
2356669.0,-0.002,-0.005,0.009,-29.57,10.22,0
2356674.0,-0.002,-0.015,-0.017,-39.92,174.78,0
2356679.0,-0.009,-0.015,-0.051,-15.84,170.23,0
2356684.0,-0.006,0.014,-0.001,65.42,96.43,0
2356689.0,-0.004,0.002,0.002,25.62,67.22,0
2356694.0,-0.028,0.019,0.016,30.32,60.13,0
2356699.0,-0.033,0.004,0.011,7.36,71.02,0
2356704.0,-0.006,0.009,0.006,45.54,44.65,0
2356709.0,-0.009,-0.017,-0.001,-62.72,94.68,0
2356714.0,0.003,0.009,0.016,29.51,-11.26,0
2356719.0,-0.016,-0.008,0.033,-11.62,25.95,0
2356724.0,-0.011,0.014,0.006,47.42,59.95,0
2356729.0,0.006,0.004,-0.001,38.43,-97.33,0
2356734.0,0.006,0.007,0.009,33.24,-32.24,0
2356739.0,0.018,0.009,-0.008,25.68,-114.23,0
2356744.0,0.006,-0.019,0.023,-39.19,-13.53,0
2356749.0,0.006,0.019,-0.025,36.68,-167.24,0
2356754.0,-0.011,-0.0,0.018,-0.85,31.22,0
2356759.0,-0.009,0.012,0.011,39.23,37.96,0
2356764.0,0.001,0.007,0.023,16.46,-1.97,0
2356769.0,0.006,0.009,-0.013,33.73,-156.24,0
2356774.0,-0.021,-0.039,-0.006,-60.94,104.86,0
2356779.0,0.006,0.012,-0.029,21.24,-169.26,0
2356784.0,-0.018,-0.019,0.014,-40.41,53.37,0
2356789.0,-0.011,-0.027,-0.015,-54.85,143.47,0
2356794.0,0.018,-0.003,0.016,-6.51,-47.58,0
2356799.0,-0.033,-0.019,0.014,-28.78,67.36,0
2356804.0,0.001,-0.015,0.033,-24.11,-1.39,0
2356809.0,0.018,-0.029,-0.006,-57.65,-107.42,0
2356814.0,-0.002,-0.027,0.028,-43.53,3.26,0
2356819.0,-0.014,-0.012,0.062,-11.04,12.43,0
2356824.0,-0.009,-0.0,-0.02,-0.84,156.17,0
2356829.0,0.008,-0.024,-0.008,-65.16,-134.71,0
2356834.0,0.008,0.002,0.023,4.83,-18.97,0
2356839.0,-0.004,-0.019,0.009,-63.49,24.25,0
2356844.0,0.01,0.016,-0.008,51.58,-127.29,0
2356849.0,-0.021,-0.017,-0.032,-24.2,146.91,0
2356854.0,0.008,-0.0,-0.008,-1.63,-134.71,0
2356859.0,0.003,-0.017,0.028,-31.21,-6.5,0
2356864.0,0.008,0.007,0.006,33.75,-50.99,0
2356869.0,0.008,-0.043,0.009,-74.64,-42.02,0
2356874.0,-0.006,0.007,0.002,46.12,75.29,0
2356879.0,-0.018,-0.039,-0.032,-46.42,150.04,0
2356884.0,0.001,0.004,0.026,9.89,-1.78,0
2356889.0,-0.006,0.007,0.002,46.12,75.29,0
2356894.0,0.025,-0.041,0.014,-55.44,-61.12,0
2356899.0,-0.018,0.004,-0.063,3.9,163.75,0
2356904.0,0.02,-0.015,-0.013,-31.84,-122.46,0
2356909.0,-0.006,0.004,-0.008,23.75,141.06,0
2356914.0,0.018,0.007,0.018,15.09,-43.6,0
2356919.0,-0.004,-0.003,0.028,-5.48,8.11,0
2356924.0,-0.011,-0.015,-0.003,-51.7,105.57,0
2356929.0,0.001,-0.019,0.023,-39.96,-1.97,0
2356934.0,-0.057,0.004,0.023,4.17,67.71,0
2356939.0,-0.006,-0.0,-0.01,-1.51,148.2,0
2356944.0,-0.023,-0.031,0.004,-53.23,80.03,0
2356949.0,-0.011,-0.017,0.038,-23.53,16.55,0
2356954.0,-0.021,-0.0,-0.02,-0.64,133.76,0
2356959.0,0.008,-0.005,-0.044,-6.54,-169.68,0
2356964.0,0.008,0.012,-0.027,22.44,-163.57,0
2356969.0,0.003,-0.003,-0.003,-31.32,-134.28,0
2356974.0,0.006,-0.012,-0.003,-62.51,-119.13,0
2356979.0,-0.011,-0.008,0.023,-16.23,25.69,0
2356984.0,0.01,-0.01,-0.01,-34.1,-134.78,0
2356989.0,-0.009,0.016,-0.013,46.82,145.32,0
2356994.0,-0.009,-0.0,-0.046,-0.39,169.24,0
2356999.0,-0.009,-0.034,0.014,-64.38,32.75,0
2357004.0,0.008,-0.029,0.004,-72.86,-62.98,0
2357009.0,0.001,0.019,0.021,42.1,-2.19,0
2357014.0,0.008,-0.008,-0.017,-21.33,-155.46,0
2357019.0,-0.016,0.028,-0.022,46.04,144.37,0
2357024.0,-0.004,-0.039,-0.02,-62.31,168.65,0
2357029.0,-0.004,-0.005,-0.001,-51.56,100.22,0
2357034.0,0.015,-0.01,0.018,-22.52,-39.44,0
2357039.0,0.003,-0.012,0.006,-59.6,-26.28,0
2357044.0,0.013,-0.012,-0.01,-36.84,-128.88,0
2357049.0,0.003,-0.022,-0.029,-36.43,-173.81,0
2357054.0,-0.004,0.009,-0.025,20.33,170.81,0
2357059.0,0.013,-0.017,-0.029,-28.02,-156.56,0
2357064.0,-0.004,-0.01,-0.006,-55.5,144.08,0
2357069.0,0.008,0.007,-0.008,31.43,-134.71,0
2357074.0,-0.002,-0.027,0.018,-55.23,4.95,0
2357079.0,-0.026,-0.027,-0.008,-44.92,107.19,0
2357084.0,-0.016,-0.031,-0.022,-48.94,144.37,0
2357089.0,-0.014,-0.003,0.004,-10.84,73.3,0
2357094.0,0.008,-0.027,-0.006,-70.01,-124.61,0
2357099.0,-0.009,0.009,0.035,14.32,14.01,0
2357104.0,-0.004,0.007,-0.017,20.95,167.14,0
2357109.0,0.008,0.007,-0.037,10.37,-167.71,0
2357114.0,-0.009,0.019,0.042,23.52,11.7,0
2357119.0,-0.011,0.014,-0.044,17.26,165.69,0
2357124.0,0.022,-0.019,0.03,-27.3,-36.31,0
2357129.0,-0.018,0.033,-0.013,56.09,124.66,0
2357134.0,0.01,-0.003,-0.01,-10.52,-134.78,0
2357139.0,0.01,0.019,0.014,47.69,-37.24,0
2357144.0,-0.028,-0.0,-0.022,-0.51,128.56,0
2357149.0,0.01,0.012,-0.025,23.53,-157.18,0
2357154.0,-0.028,-0.003,-0.025,-4.16,131.44,0
2357159.0,-0.028,-0.015,-0.022,-22.35,128.56,0
2357164.0,0.006,-0.008,-0.022,-18.1,-165.92,0
2357169.0,-0.018,0.002,0.023,4.01,38.32,0
2357174.0,0.013,-0.024,-0.006,-60.18,-113.33,0
2357179.0,0.008,0.004,0.006,23.52,-50.99,0
2357184.0,0.006,0.004,0.05,5.12,-6.43,0
2357189.0,0.013,-0.022,-0.02,-42.79,-147.28,0
2357194.0,-0.004,0.002,0.004,20.01,44.44,0
2357199.0,0.006,-0.005,0.014,-19.11,-22.26,0
2357204.0,-0.016,-0.022,0.016,-44.02,44.86,0
2357209.0,0.003,0.002,-0.006,18.05,-149.9,0
2357214.0,-0.006,0.028,0.002,76.92,75.29,0
2357219.0,-0.018,-0.008,0.016,-17.11,48.85,0
2357224.0,0.008,0.002,0.03,3.78,-14.71,0
2357229.0,-0.004,-0.017,-0.065,-14.62,176.51,0
2357234.0,-0.002,0.002,-0.044,2.71,177.91,0
2357239.0,-0.023,0.009,-0.025,15.31,136.82,0
2357244.0,0.013,-0.008,-0.017,-19.12,-143.85,0
2357249.0,-0.006,-0.019,0.026,-36.41,13.99,0
2357254.0,-0.028,-0.022,0.011,-35.99,68.06,0
2357259.0,-0.021,-0.019,-0.006,-42.21,104.86,0
2357264.0,0.006,0.002,0.018,6.15,-16.86,0
2357269.0,0.003,0.021,0.016,52.39,-11.26,0
2357274.0,-0.016,0.004,0.028,7.89,29.68,0
2357279.0,0.001,-0.029,-0.027,-47.02,-178.31,0
2357284.0,0.02,0.012,0.004,29.78,-78.47,0
2357289.0,-0.014,-0.036,-0.006,-67.99,112.09,0
2357294.0,-0.011,0.024,-0.003,63.85,105.57,0
2357299.0,-0.006,-0.005,0.014,-18.73,25.07,0
2357304.0,0.003,-0.031,0.006,-77.09,-26.28,0
2357309.0,-0.023,0.002,0.018,4.01,51.46,0
2357314.0,0.01,-0.008,0.011,-26.11,-42.68,0
2357319.0,-0.004,0.004,0.009,24.7,24.25,0
2357324.0,0.001,0.007,0.011,31.32,-4.06,0
2357329.0,-0.035,0.016,-0.073,11.53,154.17,0
2357334.0,0.013,-0.027,-0.017,-50.92,-143.85,0
2357339.0,-0.023,-0.031,0.021,-45.28,48.01,0
2357344.0,-0.016,0.016,0.004,44.94,75.7,0
2357349.0,-0.014,-0.01,0.035,-14.7,21.08,0
2357354.0,-0.016,0.009,-0.006,28.74,109.04,0
2357359.0,-0.006,-0.01,0.002,-56.3,75.29,0
2357364.0,-0.018,0.009,-0.044,11.03,157.27,0
2357369.0,-0.038,0.012,-0.001,17.25,91.1,0
2357374.0,0.03,0.019,-0.025,26.08,-129.87,0
2357379.0,-0.004,0.014,0.038,20.38,6.06,0
2357384.0,-0.004,0.007,0.028,13.64,8.11,0
2357389.0,0.001,-0.012,0.002,-81.41,-25.47,0
2357394.0,0.001,0.004,-0.015,16.48,-176.97,0
2357399.0,0.02,0.004,0.014,10.48,-55.63,0
2357404.0,0.001,-0.0,-0.006,-3.28,-171.76,0
2357409.0,-0.004,-0.0,-0.02,-0.9,168.65,0
2357414.0,-0.021,-0.003,-0.032,-4.08,146.91,0
2357419.0,-0.004,0.009,-0.056,9.4,175.91,0
2357424.0,-0.009,-0.0,0.006,-1.68,53.64,0
2357429.0,-0.014,-0.027,0.018,-49.35,36.35,0
2357434.0,-0.002,0.004,-0.037,6.95,177.51,0
2357439.0,-0.009,-0.0,0.016,-1.0,28.69,0
2357444.0,0.008,-0.005,0.014,-17.91,-30.32,0
2357449.0,-0.014,-0.019,0.014,-45.34,44.83,0
2357454.0,-0.002,0.009,-0.001,79.29,114.25,0
2357459.0,-0.002,-0.017,0.002,-82.28,43.61,0
2357464.0,-0.009,-0.008,0.002,-40.01,79.19,0
2357469.0,-0.006,-0.003,-0.001,-22.9,96.43,0
2357474.0,-0.006,0.009,-0.022,21.78,164.0,0
2357479.0,-0.014,0.002,0.021,4.77,33.08,0
2357484.0,-0.023,-0.012,-0.025,-19.97,136.82,0
2357489.0,-0.009,0.009,-0.006,41.77,122.1,0
2357494.0,0.008,-0.005,0.03,-9.23,-14.71,0
2357499.0,-0.016,-0.003,-0.034,-4.11,155.01,0
2357504.0,0.003,0.012,0.018,31.91,-9.82,0
2357509.0,-0.023,-0.017,-0.006,-35.67,103.39,0
2357514.0,-0.016,-0.017,0.006,-44.76,67.95,0
2357519.0,-0.026,0.004,0.011,9.1,66.22,0
2357524.0,0.015,-0.017,-0.041,-21.17,-159.89,0
2357529.0,-0.004,0.009,0.033,15.65,6.94,0
2357534.0,0.013,0.024,0.014,51.65,-43.1,0
2357539.0,-0.016,0.009,0.018,20.79,40.89,0
2357544.0,0.018,-0.005,0.011,-13.76,-57.34,0
2357549.0,-0.023,-0.01,0.018,-18.49,51.46,0
2357554.0,0.008,0.014,-0.051,15.22,-171.11,0
2357559.0,-0.014,-0.005,0.033,-8.19,22.47,0
2357564.0,0.001,-0.005,0.038,-7.74,-1.22,0
2357569.0,0.003,-0.005,0.016,-17.34,-11.26,0
2357574.0,-0.014,-0.019,0.021,-38.07,33.08,0
2357579.0,-0.002,0.019,-0.025,37.31,176.3,0
2357584.0,-0.006,-0.003,-0.044,-3.51,171.71,0
2357589.0,0.003,-0.027,-0.02,-52.94,-170.87,0
2357594.0,-0.009,-0.003,-0.032,-4.7,164.59,0
2357599.0,-0.016,-0.003,-0.013,-7.58,128.49,0
2357604.0,0.027,0.002,-0.001,4.37,-91.52,0
2357609.0,-0.016,-0.008,-0.006,-23.96,109.04,0
2357614.0,-0.028,0.024,-0.003,40.05,96.36,0
2357619.0,-0.011,-0.01,0.057,-9.71,11.14,0
2357624.0,0.003,-0.005,-0.01,-25.35,-162.77,0
2357629.0,-0.016,-0.003,0.009,-8.45,60.97,0
2357634.0,0.008,-0.017,-0.001,-64.87,-95.15,0
2357639.0,-0.004,0.026,-0.017,55.43,167.14,0
2357644.0,-0.016,0.004,0.014,12.01,49.47,0
2357649.0,0.02,-0.005,0.002,-14.31,-85.2,0
2357654.0,0.01,0.009,0.04,12.63,-14.55,0
2357659.0,0.01,0.009,0.009,34.16,-49.51,0
2357664.0,-0.011,0.014,0.014,38.53,39.31,0
2357669.0,-0.011,-0.019,0.002,-59.88,81.47,0
2357674.0,0.03,0.002,-0.001,4.02,-91.39,0
2357679.0,-0.021,-0.003,-0.003,-7.37,98.53,0
2357684.0,0.02,0.007,0.021,13.39,-43.77,0
2357689.0,-0.021,-0.041,-0.015,-57.98,126.02,0
2357694.0,-0.009,-0.012,-0.022,-27.18,158.48,0
2357699.0,0.006,-0.012,-0.027,-23.98,-168.33,0
2357704.0,0.006,-0.01,0.045,-12.37,-7.11,0
2357709.0,0.006,-0.008,0.033,-12.71,-9.67,0
2357714.0,-0.018,0.007,-0.006,19.7,106.7,0
2357719.0,-0.021,0.026,-0.063,21.43,161.76,0
2357724.0,-0.018,-0.031,0.004,-59.12,77.5,0
2357729.0,0.001,-0.003,-0.003,-40.18,-165.62,0
2357734.0,-0.033,-0.046,0.026,-47.79,51.94,0
2357739.0,0.03,0.009,0.006,17.03,-77.65,0
2357744.0,-0.004,0.019,0.016,48.73,13.97,0
2357749.0,-0.021,-0.019,-0.008,-41.25,110.85,0
2357754.0,-0.018,-0.031,0.042,-34.25,23.42,0
2357759.0,-0.018,-0.01,-0.013,-23.92,124.66,0
2357764.0,0.02,0.014,-0.034,19.52,-149.77,0
2357769.0,0.001,-0.003,0.028,-5.53,-1.63,0
2357774.0,0.015,0.026,-0.008,56.69,-117.52,0
2357779.0,-0.014,-0.012,-0.034,-18.45,158.38,0
2357784.0,0.006,0.007,-0.041,9.33,-172.32,0
2357789.0,0.02,-0.01,0.004,-25.92,-78.47,0
2357794.0,0.006,0.026,0.016,56.86,-19.2,0
2357799.0,-0.009,-0.022,0.011,-56.87,37.96,0
2357804.0,0.001,-0.012,0.004,-71.36,-11.1,0
2357809.0,0.022,-0.005,0.002,-12.84,-85.71,0
2357814.0,-0.004,-0.0,0.014,-1.29,16.3,0
2357819.0,-0.021,-0.017,-0.032,-24.2,146.91,0
2357824.0,-0.009,0.004,-0.02,11.62,156.17,0
2357829.0,-0.023,-0.017,-0.029,-24.51,141.84,0
2357834.0,-0.004,-0.0,0.045,-0.41,5.09,0
2357839.0,-0.016,-0.015,0.006,-40.46,67.95,0
2357844.0,-0.026,0.004,-0.015,8.57,120.57,0
2357849.0,-0.011,0.014,-0.017,34.1,147.41,0
2357854.0,0.006,-0.003,-0.015,-9.57,-159.68,0
2357859.0,0.018,0.004,0.016,10.64,-47.58,0
2357864.0,0.003,-0.005,-0.022,-12.79,-171.84,0
2357869.0,-0.006,0.016,-0.02,38.22,162.19,0
2357874.0,-0.006,-0.005,-0.017,-15.35,159.93,0
2357879.0,-0.009,-0.017,-0.025,-33.12,160.41,0
2357884.0,0.039,-0.01,0.006,-14.02,-80.61,0
2357889.0,-0.004,0.007,0.002,57.77,67.22,0
2357894.0,-0.011,-0.005,-0.022,-11.59,153.35,0
2357899.0,-0.016,-0.003,0.021,-5.9,37.46,0
2357904.0,-0.004,0.009,-0.039,13.28,174.16,0
2357909.0,-0.002,-0.005,-0.003,-55.59,152.85,0
2357914.0,0.001,-0.017,0.016,-46.76,-2.85,0
2357919.0,-0.002,0.009,-0.034,15.11,177.33,0
2357924.0,0.013,-0.0,-0.01,-1.11,-128.88,0
2357929.0,-0.026,0.024,-0.022,34.88,131.08,0
2357934.0,0.006,0.026,-0.001,77.78,-97.33,0
2357939.0,0.008,-0.019,0.03,-31.78,-14.71,0
2357944.0,-0.002,-0.005,-0.003,-55.59,152.85,0
2357949.0,-0.018,-0.019,0.023,-33.34,38.32,0
2357954.0,0.008,0.014,-0.006,55.38,-124.61,0
2357959.0,-0.004,-0.01,-0.025,-21.61,170.81,0
2357964.0,-0.006,-0.017,-0.006,-63.72,130.78,0
2357969.0,-0.018,0.009,0.03,14.61,31.12,0
2357974.0,-0.028,-0.003,-0.02,-4.53,125.43,0
2357979.0,-0.004,-0.015,-0.008,-58.92,153.2,0
2357984.0,0.01,0.014,-0.017,34.65,-149.31,0
2357989.0,0.01,-0.024,-0.003,-65.94,-106.7,0
2357994.0,-0.014,-0.005,0.016,-13.66,40.22,0
2357999.0,0.015,-0.024,-0.017,-46.36,-139.06,0
2358004.0,-0.002,-0.012,0.023,-27.83,3.93,0
2358009.0,-0.016,0.007,0.054,6.91,16.37,0
2358014.0,-0.014,-0.008,-0.025,-14.92,151.18,0
2358019.0,-0.006,-0.005,-0.02,-13.75,162.19,0
2358024.0,0.013,0.012,-0.02,26.26,-147.28,0
2358029.0,-0.021,-0.0,-0.037,-0.43,150.47,0
2358034.0,0.006,-0.015,0.021,-34.25,-15.01,0
2358039.0,-0.016,0.004,0.014,12.01,49.47,0
2358044.0,-0.016,0.021,-0.027,34.05,149.46,0
2358049.0,-0.011,0.012,-0.003,45.13,105.57,0
2358054.0,0.027,-0.046,-0.001,-59.35,-91.52,0
2358059.0,-0.04,0.009,-0.025,11.16,121.72,0
2358064.0,0.008,-0.008,-0.001,-43.11,-95.15,0
2358069.0,-0.023,0.014,0.059,12.47,21.37,0
2358074.0,-0.085,-0.012,-0.049,-7.13,119.65,0
2358079.0,-0.023,-0.039,-0.041,-39.15,150.81,0
2358084.0,-0.059,0.026,0.035,20.73,59.21,0
2358089.0,0.015,-0.039,0.004,-67.88,-74.98,0
2358094.0,0.008,-0.017,0.016,-43.63,-26.45,0
2358099.0,-0.014,0.009,-0.027,17.01,153.37,0
2358104.0,0.025,-0.029,-0.001,-49.57,-91.66,0
2358109.0,-0.021,-0.003,0.016,-5.91,52.29,0
2358114.0,0.015,-0.01,-0.006,-31.53,-109.96,0
2358119.0,0.025,-0.019,0.03,-26.42,-39.13,0
2358124.0,-0.052,-0.005,-0.015,-5.4,106.21,0
2358129.0,-0.006,-0.008,-0.058,-7.3,173.74,0
2358134.0,-0.023,-0.003,0.009,-6.25,69.06,0
2358139.0,-0.014,0.026,-0.02,47.24,145.68,0
2358144.0,-0.004,-0.003,-0.008,-17.04,153.2,0
2358149.0,-0.023,-0.017,0.004,-36.01,80.03,0
2358154.0,0.018,-0.0,0.018,-0.72,-43.6,0
2358159.0,-0.042,0.012,-0.025,13.39,120.24,0
2358164.0,0.025,-0.003,-0.02,-4.89,-128.77,0
2358169.0,-0.004,0.021,0.033,32.72,6.94,0
2358174.0,-0.002,-0.019,0.002,-83.22,43.61,0
2358179.0,-0.009,0.002,0.023,4.78,20.71,0
2358184.0,-0.004,-0.003,-0.008,-17.04,153.2,0
2358189.0,0.032,-0.017,-0.01,-26.98,-107.88,0
2358194.0,-0.016,0.004,0.021,9.67,37.46,0
2358199.0,-0.002,-0.039,0.033,-49.63,2.79,0
2358204.0,0.008,0.009,0.026,19.04,-17.3,0
2358209.0,-0.002,-0.005,0.021,-13.74,4.38,0
2358214.0,0.013,-0.019,0.006,-53.69,-63.15,0
2358219.0,-0.014,-0.008,0.002,-28.76,82.96,0
2358224.0,0.022,-0.029,0.002,-52.35,-85.71,0
2358229.0,0.01,-0.012,0.026,-23.97,-22.05,0
2358234.0,0.008,0.007,0.006,33.75,-50.99,0
2358239.0,-0.009,0.007,-0.006,33.52,122.1,0
2358244.0,-0.004,-0.005,-0.034,-8.43,173.35,0
2358249.0,0.001,-0.022,0.021,-46.37,-2.19,0
2358254.0,-0.009,-0.019,-0.046,-22.49,169.24,0
2358259.0,0.013,-0.01,-0.017,-24.57,-143.85,0
2358264.0,-0.021,0.033,0.023,46.83,41.78,0
2358269.0,-0.002,0.004,0.006,33.87,13.87,0
2358274.0,-0.021,0.016,0.035,21.92,30.52,0
2358279.0,-0.009,-0.0,-0.006,-1.76,122.1,0
2358284.0,0.01,-0.015,-0.006,-51.34,-117.96,0
2358289.0,-0.026,0.004,-0.015,8.57,120.57,0
2358294.0,0.027,-0.017,0.009,-30.89,-71.92,0
2358299.0,0.001,-0.012,0.05,-13.93,-0.92,0
2358304.0,0.003,-0.015,-0.037,-21.77,-175.02,0
2358309.0,-0.016,-0.012,0.006,-35.52,67.95,0
2358314.0,0.01,-0.027,-0.006,-66.22,-117.96,0
2358319.0,-0.009,-0.005,-0.01,-20.68,139.55,0
2358324.0,0.015,0.007,0.014,18.6,-48.01,0
2358329.0,-0.045,-0.012,-0.015,-14.6,108.65,0
2358334.0,-0.011,0.024,-0.003,63.85,105.57,0
2358339.0,-0.042,-0.024,-0.025,-26.36,120.24,0
2358344.0,-0.03,-0.012,-0.037,-14.49,140.38,0
2358349.0,-0.023,-0.019,0.009,-38.16,69.06,0
2358354.0,0.001,0.019,-0.006,73.54,-171.76,0
2358359.0,0.03,-0.0,-0.008,-0.6,-104.98,0
2358364.0,0.01,0.024,0.028,38.34,-20.32,0
2358369.0,0.006,-0.012,-0.008,-51.79,-144.74,0
2358374.0,0.01,-0.015,0.011,-43.81,-42.68,0
2358379.0,0.003,0.033,0.002,83.8,-62.3,0
2358384.0,-0.002,-0.012,0.009,-53.78,10.22,0
2358389.0,-0.023,0.002,-0.017,4.09,127.06,0
2358394.0,-0.028,0.026,-0.001,42.96,91.47,0
2358399.0,-0.014,-0.017,-0.027,-29.43,153.37,0
2358404.0,-0.006,-0.0,0.016,-1.06,21.7,0
2358409.0,-0.004,-0.008,-0.013,-29.42,162.54,0
2358414.0,-0.002,-0.019,0.023,-39.91,3.93,0
2358419.0,0.003,-0.008,0.002,-64.33,-62.3,0
2358424.0,0.003,0.002,-0.029,4.01,-173.81,0
2358429.0,-0.006,-0.012,-0.001,-62.4,96.43,0
2358434.0,-0.016,0.009,0.021,19.43,37.46,0
2358439.0,0.003,-0.0,-0.001,-5.57,-102.69,0
2358444.0,-0.009,-0.019,0.023,-38.11,20.71,0
2358449.0,-0.011,-0.017,-0.008,-51.3,125.27,0
2358454.0,-0.002,-0.015,-0.006,-68.67,163.84,0
2358459.0,-0.009,-0.029,-0.001,-73.13,94.68,0
2358464.0,0.02,-0.015,0.004,-35.8,-78.47,0
2358469.0,-0.016,-0.031,0.002,-62.96,84.01,0
2358474.0,-0.006,0.002,-0.008,11.54,141.06,0
2358479.0,0.01,-0.005,-0.01,-19.26,-134.78,0
2358484.0,-0.009,0.002,-0.02,5.46,156.17,0
2358489.0,-0.009,-0.008,0.038,-11.0,13.15,0
2358494.0,0.022,-0.015,-0.008,-31.78,-109.47,0
2358499.0,-0.004,-0.022,-0.003,-76.97,127.96,0
2358504.0,-0.002,-0.008,0.009,-39.81,10.22,0
2358509.0,-0.011,-0.022,0.009,-56.89,51.59,0
2358514.0,-0.028,-0.012,0.002,-23.71,86.57,0
2358519.0,-0.006,0.014,0.018,35.75,19.1,0
2358524.0,-0.002,-0.019,0.016,-50.38,5.68,0
2358529.0,-0.035,-0.005,-0.017,-7.42,116.46,0
2358534.0,-0.023,-0.005,-0.025,-8.59,136.82,0
2358539.0,-0.006,0.004,0.011,19.06,29.57,0
2358544.0,-0.016,-0.041,0.021,-57.39,37.46,0
2358549.0,-0.03,-0.01,0.006,-17.7,77.97,0
2358554.0,-0.011,0.002,0.016,6.06,34.86,0
2358559.0,0.01,0.016,0.016,40.71,-32.89,0
2358564.0,-0.002,-0.0,-0.001,-10.33,114.25,0
2358569.0,0.003,-0.0,-0.003,-4.09,-134.28,0
2358574.0,0.018,-0.005,0.006,-15.27,-69.79,0
2358579.0,-0.026,0.007,-0.003,14.94,96.95,0
2358584.0,0.006,-0.015,-0.073,-11.41,-175.6,0
2358589.0,-0.014,-0.003,-0.001,-11.29,93.03,0
2358594.0,0.003,-0.029,-0.008,-73.65,-158.0,0
2358599.0,-0.016,-0.012,0.011,-32.18,54.82,0
2358604.0,-0.004,-0.031,0.004,-79.73,44.44,0
2358609.0,-0.002,0.026,0.006,75.65,13.87,0
2358614.0,-0.002,0.009,0.006,54.28,13.87,0
2358619.0,-0.011,-0.027,0.011,-59.25,44.8,0
2358624.0,0.022,-0.01,0.006,-23.05,-73.87,0
2358629.0,0.032,-0.008,0.033,-9.31,-44.22,0
2358634.0,-0.002,-0.019,-0.003,-79.82,152.85,0
2358639.0,-0.03,0.024,-0.006,37.47,100.29,0
2358644.0,-0.009,-0.003,-0.013,-9.97,145.32,0
2358649.0,-0.042,0.021,0.011,25.87,75.1,0
2358654.0,-0.009,0.009,0.028,17.5,17.4,0
2358659.0,0.001,0.002,-0.006,20.45,-171.76,0
2358664.0,-0.011,-0.017,0.026,-31.43,23.56,0
2358669.0,0.015,0.002,-0.006,7.33,-109.96,0
2358674.0,-0.023,-0.005,0.011,-11.23,64.07,0
2358679.0,-0.028,-0.012,-0.034,-15.54,140.79,0
2358684.0,0.018,0.014,-0.003,38.23,-100.05,0
2358689.0,-0.009,-0.01,0.03,-17.36,16.1,0
2358694.0,-0.009,-0.027,0.011,-61.83,37.96,0
2358699.0,-0.026,-0.024,0.004,-43.17,80.95,0
2358704.0,0.001,-0.024,-0.001,-87.46,-132.02,0
2358709.0,0.001,-0.031,-0.034,-42.56,-178.66,0
2358714.0,0.01,0.002,-0.02,5.29,-152.43,0
2358719.0,-0.018,-0.027,0.006,-53.87,70.6,0
2358724.0,-0.018,-0.01,0.002,-28.23,84.78,0
2358729.0,0.003,0.014,0.011,50.22,-15.84,0
2358734.0,-0.004,-0.005,-0.02,-14.14,168.65,0
2358739.0,0.018,0.016,-0.013,37.2,-125.86,0
2358744.0,-0.038,0.031,0.038,30.12,44.94,0
2358749.0,0.02,-0.015,-0.015,-30.42,-127.09,0
2358754.0,-0.009,-0.003,-0.003,-16.24,109.52,0
2358759.0,-0.018,0.009,-0.046,10.55,158.34,0
2358764.0,-0.018,0.009,-0.013,22.53,124.66,0
2358769.0,0.001,-0.01,-0.006,-60.65,-171.76,0
2358774.0,0.03,0.002,0.023,3.16,-51.82,0
2358779.0,0.02,-0.003,0.021,-5.37,-43.77,0
2358784.0,-0.021,-0.027,0.023,-40.56,41.78,0
2358789.0,-0.004,-0.003,0.033,-4.69,6.94,0
2358794.0,-0.004,0.019,0.011,57.63,19.53,0
2358799.0,-0.009,0.007,-0.006,33.52,122.1,0
2358804.0,0.03,0.014,0.002,25.4,-86.75,0
2358809.0,-0.014,0.026,-0.015,52.05,138.03,0
2358814.0,0.006,-0.039,-0.008,-75.94,-144.74,0
2358819.0,0.01,0.002,0.018,5.6,-29.37,0
2358824.0,0.022,0.004,0.002,11.28,-85.71,0
2358829.0,-0.026,-0.005,0.011,-10.37,66.22,0
2358834.0,-0.006,-0.029,0.009,-69.4,35.78,0
2358839.0,0.001,0.019,0.014,54.03,-3.35,0
2358844.0,-0.014,0.016,-0.037,22.82,159.68,0
2358849.0,-0.002,0.016,0.006,67.95,13.87,0
2358854.0,0.015,-0.003,0.014,-7.58,-48.01,0
2358859.0,-0.023,0.009,-0.025,15.31,136.82,0
2358864.0,-0.006,0.014,-0.037,20.69,170.11,0
2358869.0,0.018,0.004,-0.006,13.65,-107.42,0
2358874.0,-0.018,0.009,-0.003,26.44,99.62,0
2358879.0,-0.011,0.012,-0.015,31.83,143.47,0
2358884.0,0.027,-0.008,-0.006,-15.16,-101.47,0
2358889.0,-0.03,0.014,-0.044,14.77,145.31,0
2358894.0,0.02,0.012,0.028,18.72,-35.46,0
2358899.0,-0.028,0.012,-0.01,21.38,110.23,0
2358904.0,-0.021,0.012,-0.001,29.3,91.98,0
2358909.0,-0.033,-0.024,-0.027,-29.74,129.59,0
2358914.0,0.001,-0.019,-0.015,-52.2,-176.97,0
2358919.0,-0.016,0.014,-0.022,27.14,144.37,0
2358924.0,-0.006,-0.003,-0.01,-12.62,148.2,0
2358929.0,-0.023,-0.0,-0.013,-0.69,118.74,0
2358934.0,-0.014,-0.008,-0.006,-27.13,112.09,0
2358939.0,-0.006,-0.017,0.021,-38.09,17.04,0
2358944.0,0.006,-0.017,-0.013,-50.93,-156.24,0
2358949.0,-0.023,-0.041,-0.003,-60.35,97.66,0
2358954.0,0.008,-0.012,0.004,-53.91,-62.98,0
2358959.0,-0.002,-0.017,0.014,-51.18,6.67,0
2358964.0,0.003,0.014,-0.015,42.33,-168.05,0
2358969.0,-0.002,-0.031,0.006,-78.04,13.87,0
2358974.0,-0.026,-0.012,-0.003,-25.53,96.95,0
2358979.0,-0.002,0.007,0.006,45.87,13.87,0
2358984.0,-0.014,0.002,-0.003,8.48,102.92,0
2358989.0,0.008,-0.003,0.021,-6.94,-20.96,0
2358994.0,-0.016,-0.0,-0.003,-1.12,101.04,0
2358999.0,0.001,0.016,0.016,45.67,-2.85,0
2359004.0,-0.026,0.002,-0.013,4.16,116.42,0
2359009.0,0.027,-0.015,0.006,-27.76,-76.6,0
2359014.0,-0.026,-0.005,-0.003,-11.23,96.95,0
2359019.0,0.006,-0.022,-0.017,-50.0,-162.27,0
2359024.0,-0.006,0.004,0.018,12.9,19.1,0
2359029.0,-0.006,-0.0,0.002,-2.77,75.29,0
2359034.0,-0.011,-0.019,-0.027,-33.63,157.56,0
2359039.0,-0.016,-0.005,0.004,-17.23,75.7,0
2359044.0,-0.009,0.014,0.006,52.18,53.64,0
2359049.0,-0.018,-0.01,-0.013,-23.92,124.66,0
2359054.0,-0.006,-0.005,-0.013,-19.78,153.29,0
2359059.0,-0.011,0.012,0.006,42.07,59.95,0
2359064.0,0.013,-0.024,-0.001,-62.2,-93.22,0
2359069.0,-0.023,-0.031,-0.015,-48.7,123.09,0
2359074.0,0.013,0.012,-0.034,17.69,-159.55,0
2359079.0,-0.011,-0.029,0.018,-53.42,31.22,0
2359084.0,-0.023,-0.005,-0.008,-11.8,108.85,0
2359089.0,-0.018,-0.036,-0.027,-47.94,145.85,0
2359094.0,0.02,-0.036,0.021,-51.48,-43.77,0
2359099.0,-0.018,-0.039,-0.025,-51.48,143.34,0
2359104.0,-0.016,0.004,-0.003,15.37,101.04,0
2359109.0,0.006,0.004,0.026,9.67,-12.3,0
2359114.0,-0.014,-0.019,-0.008,-51.12,120.22,0
2359119.0,-0.009,0.002,-0.017,6.06,153.33,0
2359124.0,-0.018,0.002,-0.006,6.18,106.7,0
2359129.0,0.006,-0.003,-0.01,-13.04,-151.52,0
2359134.0,0.006,0.028,0.009,69.77,-32.24,0
2359139.0,0.008,-0.0,-0.01,-1.4,-142.22,0
2359144.0,0.006,0.009,-0.017,26.77,-162.27,0
2359149.0,-0.009,-0.019,-0.022,-39.13,158.48,0
2359154.0,0.022,-0.024,0.026,-35.52,-41.1,0
2359159.0,-0.016,-0.01,-0.025,-18.62,147.09,0
2359164.0,-0.018,-0.003,0.002,-8.37,84.78,0
2359169.0,-0.009,0.021,-0.006,63.98,122.1,0
2359174.0,0.008,0.007,-0.02,17.77,-158.12,0
2359179.0,0.008,0.021,0.04,27.5,-11.29,0
2359184.0,0.008,-0.053,0.026,-63.14,-17.3,0
2359189.0,0.008,0.004,0.016,14.01,-26.45,0
2359194.0,0.008,-0.01,-0.032,-16.78,-165.93,0
2359199.0,-0.006,-0.022,-0.022,-43.35,164.0,0
2359204.0,-0.021,-0.029,-0.017,-46.96,130.11,0
2359209.0,-0.011,-0.01,0.009,-34.76,51.59,0
2359214.0,0.001,-0.019,0.018,-46.54,-2.48,0
2359219.0,-0.014,-0.005,0.011,-16.16,50.33,0
2359224.0,0.006,0.014,-0.015,41.13,-159.68,0
2359229.0,0.008,-0.029,-0.008,-68.86,-134.71,0
2359234.0,-0.016,-0.029,-0.02,-48.74,141.23,0
2359239.0,0.015,0.014,0.016,32.47,-43.39,0
2359244.0,-0.011,0.016,0.006,51.86,59.95,0
2359249.0,-0.035,0.009,0.054,8.14,32.87,0
2359254.0,-0.002,-0.041,0.009,-77.62,10.22,0
2359259.0,-0.016,0.009,-0.01,25.98,122.82,0
2359264.0,-0.011,-0.017,0.021,-35.85,28.21,0
2359269.0,0.022,-0.012,0.014,-25.15,-58.59,0
2359274.0,-0.011,-0.01,0.028,-18.17,21.75,0
2359279.0,-0.002,-0.008,-0.008,-42.94,168.58,0
2359284.0,-0.009,-0.012,-0.001,-54.37,94.68,0
2359289.0,-0.009,-0.029,0.016,-57.81,28.69,0
2359294.0,-0.035,-0.008,-0.017,-10.83,116.46,0
2359299.0,-0.009,-0.01,-0.027,-19.18,162.02,0
2359304.0,0.01,0.014,-0.006,50.1,-117.96,0
2359309.0,0.003,-0.029,-0.039,-36.57,-175.32,0
2359314.0,-0.006,-0.019,0.002,-71.27,75.29,0
2359319.0,-0.009,-0.01,0.045,-12.24,11.09,0
2359324.0,0.032,-0.003,0.028,-3.66,-48.73,0
2359329.0,-0.002,0.002,0.009,12.98,10.22,0
2359334.0,0.003,0.004,-0.022,11.24,-171.84,0
2359339.0,-0.026,-0.015,-0.025,-22.47,134.0,0
2359344.0,0.02,0.009,0.026,15.91,-37.91,0
2359349.0,0.01,-0.012,0.006,-45.16,-58.08,0
2359354.0,-0.021,-0.031,-0.008,-54.77,110.85,0
2359359.0,-0.014,0.019,-0.01,47.88,127.19,0
2359364.0,0.001,-0.019,0.016,-50.49,-2.85,0
2359369.0,-0.002,0.009,-0.008,48.95,168.58,0
2359374.0,-0.006,0.024,0.023,44.45,15.37,0
2359379.0,0.008,0.014,0.002,59.86,-78.14,0
2359384.0,-0.03,0.016,-0.008,27.68,104.6,0
2359389.0,-0.028,-0.0,0.018,-0.55,56.58,0
2359394.0,-0.006,0.012,0.011,42.01,29.57,0
2359399.0,0.003,-0.019,-0.001,-80.46,-102.69,0
2359404.0,-0.006,-0.015,0.028,-27.07,12.84,0
2359409.0,0.008,-0.005,0.006,-26.44,-50.99,0
2359414.0,-0.035,-0.017,0.009,-25.25,75.84,0
2359419.0,-0.004,0.007,-0.013,27.29,162.54,0
2359424.0,-0.023,-0.01,0.004,-22.84,80.03,0
2359429.0,-0.018,-0.017,0.03,-25.68,31.12,0
2359434.0,0.008,-0.017,0.033,-26.84,-13.68,0
2359439.0,-0.028,-0.003,0.004,-5.49,81.71,0
2359444.0,0.01,-0.008,-0.029,-13.51,-160.59,0
2359449.0,0.001,-0.005,-0.015,-18.68,-176.97,0
2359454.0,-0.026,-0.019,-0.003,-37.12,96.95,0
2359459.0,-0.023,0.019,0.028,27.4,39.56,0
2359464.0,0.006,0.002,0.002,19.58,-73.3,0
2359469.0,0.018,0.019,-0.006,45.67,-107.42,0
2359474.0,-0.018,-0.039,-0.039,-41.85,154.81,0
2359479.0,-0.002,-0.031,0.023,-53.49,3.93,0
2359484.0,0.018,-0.024,0.028,-36.27,-32.08,0
2359489.0,0.003,-0.003,-0.006,-23.09,-149.9,0
2359494.0,-0.026,-0.019,-0.008,-36.07,107.19,0
2359499.0,-0.006,-0.0,-0.029,-0.61,167.77,0
2359504.0,-0.006,0.016,-0.027,30.6,166.72,0
2359509.0,-0.035,0.002,-0.027,2.68,127.61,0
2359514.0,-0.004,-0.024,0.002,-79.89,67.22,0
2359519.0,-0.033,-0.017,-0.032,-20.51,134.22,0
2359524.0,0.006,0.002,-0.013,8.51,-156.24,0
2359529.0,-0.014,0.021,-0.032,31.52,156.92,0
2359534.0,0.006,-0.015,-0.037,-21.62,-171.33,0
2359539.0,-0.009,-0.015,0.038,-20.83,13.15,0
2359544.0,0.006,-0.005,-0.01,-23.56,-151.52,0
2359549.0,-0.03,-0.019,-0.017,-29.09,119.96,0
2359554.0,0.001,-0.019,-0.003,-80.63,-165.62,0
2359559.0,-0.009,-0.015,-0.01,-47.34,139.55,0
2359564.0,-0.014,0.004,0.004,17.51,73.3,0
2359569.0,-0.004,0.026,0.014,61.34,16.3,0
2359574.0,0.027,0.019,0.052,17.81,-27.58,0
2359579.0,-0.028,0.012,-0.022,18.07,128.56,0
2359584.0,0.006,0.019,-0.02,42.38,-164.3,0
2359589.0,-0.038,0.016,-0.01,22.91,105.35,0
2359594.0,-0.018,-0.048,-0.053,-40.49,161.03,0
2359599.0,0.013,-0.022,0.009,-54.6,-55.25,0
2359604.0,-0.047,-0.051,0.014,-45.91,73.84,0
2359609.0,0.063,0.012,-0.01,10.34,-99.27,0
2359614.0,-0.023,-0.005,0.045,-5.79,27.34,0
2359619.0,-0.014,0.004,0.002,18.1,82.96,0
2359624.0,0.025,-0.01,-0.02,-17.32,-128.77,0
2359629.0,-0.042,0.038,-0.075,23.82,150.56,0
2359634.0,-0.004,-0.008,0.004,-52.78,44.44,0
2359639.0,-0.006,-0.022,-0.046,-25.12,172.13,0
2359644.0,-0.014,0.028,-0.039,34.51,160.83,0
2359649.0,-0.018,-0.015,-0.041,-17.96,156.1,0
2359654.0,-0.006,-0.029,-0.025,-48.75,165.49,0
2359659.0,0.015,0.019,0.035,26.17,-23.31,0
2359664.0,0.008,0.002,0.023,4.83,-18.97,0
2359669.0,-0.009,-0.012,-0.001,-54.37,94.68,0
2359674.0,0.018,-0.012,-0.01,-31.13,-120.39,0
2359679.0,0.018,-0.005,0.009,-14.56,-63.23,0
2359684.0,0.02,-0.01,-0.006,-25.55,-105.43,0
2359689.0,-0.018,0.012,-0.006,31.3,106.7,0
2359694.0,0.003,0.014,0.023,30.93,-7.83,0
2359699.0,-0.016,0.019,0.016,39.77,44.86,0
2359704.0,-0.018,-0.015,-0.001,-38.64,92.24,0
2359709.0,0.001,-0.0,0.023,-0.79,-1.97,0
2359714.0,-0.004,-0.031,-0.008,-74.28,153.2,0
2359719.0,0.018,-0.008,0.014,-18.64,-52.14,0
2359724.0,-0.014,-0.0,-0.015,-0.9,138.03,0
2359729.0,0.006,0.007,0.014,24.96,-22.26,0
2359734.0,0.018,0.009,-0.013,23.14,-125.86,0
2359739.0,0.013,0.002,0.014,6.34,-43.1,0
2359744.0,-0.014,-0.003,-0.034,-4.21,158.38,0
2359749.0,-0.016,0.007,-0.01,19.87,122.82,0
2359754.0,-0.002,0.002,0.006,17.31,13.87,0
2359759.0,0.001,-0.003,0.006,-22.62,-7.04,0
2359764.0,-0.006,0.007,0.011,27.95,29.57,0
2359769.0,-0.014,0.007,0.009,22.96,56.86,0
2359774.0,0.027,0.004,-0.01,8.75,-110.78,0
2359779.0,0.01,-0.005,0.03,-9.03,-18.84,0
2359784.0,0.015,-0.01,0.006,-30.98,-66.91,0
2359789.0,-0.004,0.004,-0.013,18.57,162.54,0
2359794.0,-0.002,0.012,0.002,78.77,43.61,0
2359799.0,-0.023,0.014,-0.001,31.24,91.78,0
2359804.0,0.015,-0.01,-0.013,-26.59,-129.92,0
2359809.0,-0.009,0.012,0.042,15.07,11.7,0
2359814.0,0.02,0.014,0.011,31.52,-60.58,0
2359819.0,-0.049,-0.0,-0.027,-0.32,118.67,0
2359824.0,0.006,0.028,0.002,78.4,-73.3,0
2359829.0,0.003,-0.01,0.014,-35.23,-13.17,0
2359834.0,0.003,0.009,-0.01,40.66,-162.77,0
2359839.0,-0.006,0.002,-0.003,16.28,115.99,0
2359844.0,-0.023,-0.005,-0.015,-10.47,123.09,0
2359849.0,-0.021,-0.01,-0.006,-24.75,104.86,0
2359854.0,-0.002,0.002,-0.017,6.74,174.78,0
2359859.0,0.01,0.019,-0.025,35.14,-157.18,0
2359864.0,0.022,-0.0,-0.041,-0.39,-151.65,0
2359869.0,0.003,0.012,0.018,31.91,-9.82,0
2359874.0,-0.014,-0.034,-0.001,-68.12,93.03,0
2359879.0,0.001,-0.029,0.021,-54.34,-2.19,0
2359884.0,-0.026,-0.022,-0.006,-39.93,102.17,0
2359889.0,-0.021,-0.019,-0.013,-38.68,121.45,0
2359894.0,-0.014,-0.003,-0.013,-8.31,133.09,0
2359899.0,-0.002,0.031,-0.02,57.09,175.41,0
2359904.0,0.013,0.007,-0.01,22.71,-128.88,0
2359909.0,-0.004,-0.019,0.028,-34.54,8.11,0
2359914.0,0.032,-0.008,-0.006,-13.04,-99.79,0
2359919.0,0.006,-0.053,-0.029,-60.51,-169.26,0
2359924.0,-0.016,-0.008,-0.017,-17.59,137.6,0
2359929.0,0.013,-0.019,-0.032,-29.58,-158.15,0
2359934.0,0.013,-0.01,0.026,-19.07,-26.49,0
2359939.0,0.02,-0.0,0.009,-0.84,-66.06,0
2359944.0,0.003,0.007,-0.051,7.65,-176.42,0
2359949.0,-0.016,-0.003,-0.017,-6.54,137.6,0
2359954.0,-0.009,-0.027,-0.008,-66.1,131.99,0
2359959.0,0.018,0.009,0.004,27.19,-76.95,0
2359964.0,0.025,-0.01,0.004,-21.54,-80.66,0
2359969.0,-0.004,-0.027,0.018,-54.72,12.21,0
2359974.0,0.003,-0.015,0.009,-57.33,-19.82,0
2359979.0,-0.006,-0.01,-0.001,-57.01,96.43,0
2359984.0,0.03,0.009,-0.015,15.6,-117.06,0
2359989.0,0.001,0.019,-0.02,43.44,-177.7,0
2359994.0,-0.002,0.007,-0.013,28.22,172.83,0
2359999.0,-0.002,0.004,-0.013,19.26,172.83,0
2360004.0,-0.023,-0.036,-0.02,-49.9,130.65,0
2360009.0,-0.023,-0.008,-0.02,-13.82,130.65,0
2360014.0,-0.011,0.007,0.016,19.35,34.86,0
2360019.0,-0.004,-0.031,0.009,-72.83,24.25,0
2360024.0,-0.016,0.004,0.002,15.56,84.01,0
2360029.0,-0.011,-0.003,-0.025,-5.72,155.63,0
2360034.0,0.003,-0.024,-0.017,-53.78,-169.65,0
2360039.0,-0.011,0.002,0.016,6.06,34.86,0
2360044.0,0.013,0.004,0.018,11.27,-34.71,0
2360049.0,-0.023,0.012,-0.017,21.89,127.06,0
2360054.0,0.001,0.016,0.018,41.7,-2.48,0
2360059.0,-0.004,-0.0,0.035,-0.52,6.47,0
2360064.0,0.003,-0.003,0.009,-16.08,-19.82,0
2360069.0,-0.002,-0.017,-0.032,-28.18,177.13,0
2360074.0,-0.002,-0.019,-0.01,-61.85,171.19,0
2360079.0,0.008,-0.008,-0.01,-29.94,-142.22,0
2360084.0,-0.006,-0.003,0.03,-4.99,11.86,0
2360089.0,0.013,-0.01,-0.015,-26.6,-139.75,0
2360094.0,-0.011,0.009,-0.013,28.7,138.64,0
2360099.0,-0.026,0.002,0.009,4.39,70.87,0
2360104.0,-0.028,-0.003,0.011,-5.15,68.06,0
2360109.0,-0.016,0.002,-0.032,3.33,153.38,0
2360114.0,-0.016,-0.024,0.004,-55.83,75.7,0
2360119.0,-0.009,0.012,0.004,50.29,65.13,0
2360124.0,-0.011,-0.0,-0.008,-1.34,125.27,0
2360129.0,0.006,-0.012,0.002,-64.61,-73.3,0
2360134.0,0.006,-0.051,-0.025,-63.45,-167.24,0
2360139.0,-0.018,-0.019,-0.01,-42.78,119.29,0
2360144.0,-0.014,0.002,0.018,5.18,36.35,0
2360149.0,-0.016,-0.029,-0.003,-60.76,101.04,0
2360154.0,0.001,0.014,0.009,57.66,-5.15,0
2360159.0,0.018,0.021,-0.039,26.38,-155.78,0
2360164.0,-0.038,0.004,-0.053,3.92,144.91,0
2360169.0,-0.002,0.002,-0.01,11.26,171.19,0
2360174.0,0.02,-0.015,-0.003,-36.02,-98.87,0
2360179.0,0.003,-0.017,0.002,-78.08,-62.3,0
2360184.0,0.008,0.009,0.002,48.62,-78.14,0
2360189.0,-0.002,0.009,0.002,75.97,43.61,0
2360194.0,-0.016,-0.015,0.018,-31.06,40.89,0
2360199.0,0.02,-0.022,-0.017,-39.5,-131.22,0
2360204.0,-0.004,-0.027,-0.02,-52.75,168.65,0
2360209.0,-0.002,-0.008,-0.008,-42.94,168.58,0
2360214.0,0.027,-0.043,0.033,-45.56,-39.6,0
2360219.0,-0.011,0.016,0.002,55.5,81.47,0
2360224.0,0.01,-0.008,0.033,-12.3,-17.55,0
2360229.0,-0.006,-0.003,0.006,-16.63,44.65,0
2360234.0,-0.009,0.028,-0.006,69.96,122.1,0
2360239.0,0.001,0.004,0.004,47.14,-11.1,0
2360244.0,-0.004,-0.034,0.002,-82.71,67.22,0
2360249.0,-0.014,-0.003,0.028,-4.98,25.84,0
2360254.0,0.02,0.009,0.018,18.82,-47.26,0
2360259.0,0.006,0.007,0.023,16.03,-13.53,0
2360264.0,-0.011,-0.024,-0.008,-60.57,125.27,0
2360269.0,0.003,-0.0,0.04,-0.46,-4.56,0
2360274.0,0.008,-0.017,-0.017,-41.63,-155.46,0
2360279.0,-0.011,0.004,0.045,5.53,14.01,0
2360284.0,-0.016,-0.003,-0.027,-4.94,149.46,0
2360289.0,-0.014,0.024,0.016,48.35,40.22,0
2360294.0,0.003,0.019,-0.006,71.33,-149.9,0
2360299.0,-0.002,-0.039,-0.01,-74.9,171.19,0
2360304.0,-0.035,-0.012,-0.051,-11.23,145.45,0
2360309.0,-0.033,0.019,-0.02,26.2,121.27,0
2360314.0,0.008,-0.019,-0.017,-45.38,-155.46,0
2360319.0,-0.006,0.028,0.004,75.08,57.49,0
2360324.0,-0.004,-0.027,0.033,-38.89,6.94,0
2360329.0,0.01,-0.015,-0.029,-25.19,-160.59,0
2360334.0,-0.016,-0.005,0.018,-11.83,40.89,0
2360339.0,0.01,0.009,-0.01,32.35,-134.78,0
2360344.0,-0.033,0.016,0.016,24.28,63.88,0
2360349.0,-0.009,0.014,-0.013,42.31,145.32,0
2360354.0,-0.004,-0.034,0.002,-82.71,67.22,0
2360359.0,0.008,-0.0,-0.01,-1.4,-142.22,0
2360364.0,-0.002,-0.01,0.03,-18.0,3.01,0
2360369.0,-0.023,0.019,0.004,38.71,80.03,0
2360374.0,0.025,-0.015,-0.056,-13.53,-156.08,0
2360379.0,-0.035,-0.019,0.006,-28.61,79.57,0
2360384.0,0.01,-0.008,0.021,-17.87,-26.48,0
2360389.0,-0.014,-0.008,0.021,-16.79,33.08,0
2360394.0,0.003,-0.005,-0.039,-7.43,-175.32,0
2360399.0,0.008,-0.024,-0.022,-45.73,-160.28,0
2360404.0,-0.021,0.016,0.016,32.08,52.29,0
2360409.0,-0.006,0.021,0.035,30.69,10.28,0
2360414.0,-0.028,-0.008,-0.008,-14.49,105.79,0
2360419.0,-0.009,0.016,-0.015,43.29,149.8,0
2360424.0,0.02,-0.0,0.002,-0.91,-85.2,0
2360429.0,-0.016,-0.012,0.018,-26.75,40.89,0
2360434.0,-0.002,0.004,0.028,9.05,3.26,0
2360439.0,-0.002,-0.005,0.002,-65.63,43.61,0
2360444.0,-0.04,-0.012,0.004,-17.04,84.18,0
2360449.0,-0.002,-0.01,-0.029,-18.55,176.9,0
2360454.0,0.003,-0.017,-0.006,-69.56,-149.9,0
2360459.0,-0.035,-0.005,-0.013,-7.79,109.87,0
2360464.0,-0.002,-0.012,0.011,-47.24,8.07,0
2360469.0,-0.021,0.016,0.018,30.64,48.38,0
2360474.0,-0.014,-0.015,0.033,-22.48,22.47,0
2360479.0,-0.004,-0.015,-0.001,-74.56,100.22,0
2360484.0,0.003,-0.015,0.033,-24.02,-5.56,0
2360489.0,0.02,-0.0,-0.034,-0.46,-149.77,0
2360494.0,-0.014,-0.012,-0.006,-40.01,112.09,0
2360499.0,0.025,-0.019,0.033,-25.36,-37.03,0
2360504.0,-0.009,0.009,-0.02,23.08,156.17,0
2360509.0,-0.014,0.004,-0.006,16.97,112.09,0
2360514.0,-0.045,-0.015,-0.027,-15.7,121.19,0
2360519.0,0.018,0.024,-0.037,30.18,-154.39,0
2360524.0,-0.033,-0.027,0.011,-37.61,71.02,0
2360529.0,-0.011,-0.012,0.045,-14.91,14.01,0
2360534.0,-0.023,-0.027,0.006,-47.97,74.4,0
2360539.0,-0.011,0.016,-0.006,52.85,116.24,0
2360544.0,-0.009,-0.015,-0.015,-40.08,149.8,0
2360549.0,-0.009,-0.017,-0.027,-30.98,162.02,0
2360554.0,-0.002,-0.029,0.047,-31.61,1.94,0
2360559.0,-0.023,0.002,0.004,5.05,80.03,0
2360564.0,-0.016,0.004,0.023,9.01,34.5,0
2360569.0,-0.016,0.002,-0.022,4.33,144.37,0
2360574.0,-0.018,0.016,-0.034,22.94,151.8,0
2360579.0,0.006,-0.01,-0.044,-12.63,-172.73,0
2360584.0,0.006,-0.012,0.026,-25.11,-12.3,0
2360589.0,-0.03,-0.017,0.004,-29.17,82.36,0
2360594.0,0.008,-0.003,0.035,-4.3,-12.78,0
2360599.0,-0.014,-0.012,0.002,-41.96,82.96,0
2360604.0,0.003,0.004,-0.032,7.95,-174.28,0
2360609.0,0.006,-0.01,0.018,-27.19,-16.86,0
2360614.0,-0.004,-0.017,0.035,-25.74,6.47,0
2360619.0,0.003,-0.012,0.004,-67.18,-38.11,0
2360624.0,-0.009,-0.027,-0.029,-40.94,163.4,0
2360629.0,0.018,0.021,0.03,31.16,-30.0,0
2360634.0,-0.004,-0.024,-0.001,-80.51,100.22,0
2360639.0,-0.014,-0.024,-0.006,-58.89,112.09,0
2360644.0,0.008,0.012,0.026,23.47,-17.3,0
2360649.0,0.006,0.002,-0.001,20.22,-97.33,0
2360654.0,-0.006,-0.015,-0.037,-21.55,170.11,0
2360659.0,-0.011,-0.012,0.009,-40.76,51.59,0
2360664.0,-0.028,-0.031,-0.003,-48.21,96.36,0
2360669.0,-0.014,0.007,0.004,25.85,73.3,0
2360674.0,0.015,-0.005,0.016,-13.03,-43.39,0
2360679.0,-0.026,0.019,0.016,31.99,57.87,0
2360684.0,0.022,-0.019,-0.063,-16.25,-160.46,0
2360689.0,-0.002,-0.043,0.009,-78.29,10.22,0
2360694.0,-0.026,0.014,-0.003,28.63,96.95,0
2360699.0,0.037,0.004,0.038,4.86,-44.32,0
2360704.0,-0.023,-0.029,0.035,-34.59,33.33,0
2360709.0,0.01,-0.022,-0.017,-47.09,-149.31,0
2360714.0,-0.011,0.004,-0.013,14.81,138.64,0
2360719.0,-0.004,-0.017,0.018,-42.16,12.21,0
2360724.0,0.013,-0.031,-0.006,-66.14,-113.33,0
2360729.0,-0.033,0.002,0.028,2.76,49.43,0
2360734.0,0.022,0.024,0.018,39.2,-50.48,0
2360739.0,-0.016,-0.022,-0.001,-53.85,92.58,0
2360744.0,-0.011,0.009,0.011,30.28,44.8,0
2360749.0,0.027,0.004,0.03,6.26,-41.75,0
2360754.0,0.006,-0.003,-0.037,-4.19,-171.33,0
2360759.0,-0.014,-0.012,-0.034,-18.45,158.38,0
2360764.0,0.006,0.014,0.009,53.29,-32.24,0
2360769.0,-0.006,0.012,0.023,25.82,15.37,0
2360774.0,-0.011,-0.017,0.011,-47.12,44.8,0
2360779.0,0.003,0.012,0.011,44.89,-15.84,0
2360784.0,-0.009,-0.003,-0.001,-17.12,94.68,0
2360789.0,0.001,-0.027,0.006,-76.27,-7.04,0
2360794.0,-0.018,0.004,0.011,11.73,58.49,0
2360799.0,-0.009,-0.029,-0.013,-62.02,145.32,0
2360804.0,-0.009,-0.041,0.004,-76.73,65.13,0
2360809.0,-0.006,0.007,0.002,46.12,75.29,0
2360814.0,0.003,0.014,-0.015,42.33,-168.05,0
2360819.0,0.006,-0.008,-0.003,-49.55,-119.13,0
2360824.0,0.018,0.021,0.002,50.28,-84.55,0
2360829.0,-0.006,-0.022,0.021,-45.11,17.04,0
2360834.0,-0.006,-0.0,0.004,-2.41,57.49,0
2360839.0,0.001,-0.003,0.014,-11.23,-3.35,0
2360844.0,0.008,-0.017,0.023,-34.82,-18.97,0
2360849.0,-0.004,-0.005,0.014,-19.76,16.3,0
2360854.0,-0.033,0.024,-0.041,24.11,141.69,0
2360859.0,0.008,-0.024,0.033,-35.71,-13.68,0
2360864.0,-0.016,-0.027,-0.037,-33.71,156.46,0
2360869.0,-0.002,-0.015,-0.027,-28.45,176.62,0
2360874.0,-0.018,-0.005,0.009,-14.07,64.24,0
2360879.0,-0.014,-0.015,0.006,-44.34,64.52,0
2360884.0,0.008,-0.029,0.006,-70.53,-50.99,0
2360889.0,0.01,0.014,-0.025,27.7,-157.18,0
2360894.0,-0.006,0.024,-0.001,74.78,96.43,0
2360899.0,-0.047,0.028,-0.001,31.1,90.87,0
2360904.0,-0.002,0.026,0.018,54.58,4.95,0
2360909.0,-0.021,0.012,-0.008,27.69,110.85,0
2360914.0,-0.014,0.012,0.023,23.42,30.29,0
2360919.0,-0.009,0.014,-0.015,38.83,149.8,0
2360924.0,-0.03,-0.022,-0.041,-23.07,143.79,0
2360929.0,-0.011,-0.034,0.045,-36.25,14.01,0
2360934.0,0.003,-0.01,-0.001,-71.7,-102.69,0
2360939.0,0.008,0.021,-0.008,62.12,-134.71,0
2360944.0,0.008,0.012,-0.056,11.68,-171.86,0
2360949.0,0.001,0.004,-0.027,9.38,-178.31,0
2360954.0,-0.011,0.019,0.006,55.58,59.95,0
2360959.0,-0.026,0.009,0.035,12.02,35.97,0
2360964.0,0.008,-0.01,0.018,-26.23,-23.41,0
2360969.0,-0.03,-0.024,-0.006,-38.21,100.29,0
2360974.0,-0.014,0.026,-0.039,32.2,160.83,0
2360979.0,0.008,-0.0,0.009,-1.53,-42.02,0
2360984.0,-0.018,0.021,0.035,28.14,27.54,0
2360989.0,-0.009,-0.019,0.004,-63.58,65.13,0
2360994.0,0.01,0.009,0.011,31.17,-42.68,0
2360999.0,0.01,-0.01,-0.08,-7.02,-172.59,0
2361004.0,0.015,-0.022,-0.044,-25.25,-160.91,0
2361009.0,-0.014,-0.015,0.021,-30.57,33.08,0
2361014.0,0.006,-0.008,0.014,-26.97,-22.26,0
2361019.0,0.01,-0.046,0.035,-51.31,-16.42,0
2361024.0,-0.011,0.009,0.021,21.39,28.21,0
2361029.0,-0.002,-0.019,-0.003,-79.82,152.85,0
2361034.0,-0.011,-0.048,-0.001,-76.92,93.68,0
2361039.0,-0.004,-0.008,-0.001,-61.61,100.22,0
2361044.0,-0.011,-0.019,-0.01,-52.04,132.66,0
2361049.0,-0.028,0.009,0.016,16.04,60.13,0
2361054.0,-0.04,0.012,-0.01,15.79,104.47,0
2361059.0,0.01,0.007,0.009,26.71,-49.51,0
2361064.0,-0.026,0.002,-0.01,4.31,111.96,0
2361069.0,0.018,-0.022,-0.015,-43.37,-130.67,0
2361074.0,-0.04,-0.019,0.03,-21.21,52.69,0
2361079.0,-0.006,-0.0,0.004,-2.41,57.49,0
2361084.0,-0.014,-0.012,0.002,-41.96,82.96,0
2361089.0,-0.047,-0.029,-0.041,-24.85,131.34,0
2361094.0,0.008,0.028,-0.025,47.63,-162.07,0
2361099.0,0.003,-0.01,-0.008,-49.27,-158.0,0
2361104.0,-0.014,0.007,0.014,19.63,44.83,0
2361109.0,0.008,0.002,0.004,13.04,-62.98,0
2361114.0,0.003,0.002,-0.013,9.01,-165.88,0
2361119.0,-0.004,-0.003,0.004,-25.46,44.44,0
2361124.0,0.003,0.019,0.011,58.16,-15.84,0
2361129.0,0.025,0.007,-0.02,12.2,-128.77,0
2361134.0,-0.002,0.016,0.002,81.99,43.61,0
2361139.0,-0.011,-0.022,0.014,-51.11,39.31,0
2361144.0,0.003,-0.012,0.002,-73.65,-62.3,0
2361149.0,-0.006,0.007,-0.017,20.25,159.93,0
2361154.0,-0.016,-0.022,0.004,-53.01,75.7,0
2361159.0,-0.042,-0.031,0.009,-36.04,78.17,0
2361164.0,0.02,-0.008,0.014,-17.24,-55.63,0
2361169.0,0.003,-0.012,0.021,-30.25,-8.71,0
2361174.0,0.01,0.021,-0.003,62.97,-106.7,0
2361179.0,-0.016,0.014,0.057,13.4,15.71,0
2361184.0,-0.004,-0.005,0.016,-17.17,13.97,0
2361189.0,-0.028,-0.0,-0.003,-0.65,96.36,0
2361194.0,-0.016,-0.022,0.006,-51.78,67.95,0
2361199.0,-0.023,-0.024,-0.01,-43.76,113.98,0
2361204.0,-0.004,-0.005,0.009,-27.73,24.25,0
2361209.0,-0.021,-0.017,-0.006,-38.5,104.86,0
2361214.0,-0.009,-0.0,0.016,-1.0,28.69,0
2361219.0,-0.009,-0.01,-0.006,-43.68,122.1,0
2361224.0,-0.004,-0.012,-0.006,-61.04,144.08,0
2361229.0,-0.006,-0.046,-0.039,-49.2,170.71,0
2361234.0,0.006,0.007,-0.003,47.02,-119.13,0
2361239.0,0.01,-0.015,0.035,-21.81,-16.42,0
2361244.0,0.01,0.009,0.033,15.06,-17.55,0
2361249.0,-0.042,-0.022,-0.032,-22.44,126.97,0
2361254.0,0.008,-0.036,-0.032,-47.82,-165.93,0
2361259.0,-0.009,-0.019,0.009,-57.36,44.74,0
2361264.0,-0.011,-0.012,0.018,-29.69,31.22,0
2361269.0,-0.004,0.021,0.002,78.48,67.22,0
2361274.0,0.008,0.004,0.016,14.01,-26.45,0
2361279.0,0.018,0.019,0.033,26.85,-28.16,0
2361284.0,0.008,-0.043,0.018,-65.17,-23.41,0
2361289.0,-0.014,0.002,0.021,4.77,33.08,0
2361294.0,-0.006,0.024,-0.022,45.56,164.0,0
2361299.0,-0.006,-0.015,-0.041,-19.31,171.24,0
2361304.0,-0.021,0.009,0.023,16.56,41.78,0
2361309.0,-0.018,-0.01,0.021,-19.62,41.39,0
2361314.0,-0.026,0.026,-0.034,31.35,143.28,0
2361319.0,0.01,0.004,-0.003,22.42,-106.7,0
2361324.0,0.003,-0.019,0.023,-39.72,-7.83,0
2361329.0,-0.004,0.009,0.016,29.25,13.97,0
2361334.0,-0.014,-0.024,-0.02,-45.24,145.68,0
2361339.0,0.013,0.007,-0.01,22.71,-128.88,0
2361344.0,-0.011,0.009,-0.015,26.25,143.47,0
2361349.0,0.001,-0.01,0.002,-79.38,-25.47,0
2361354.0,-0.014,-0.003,0.006,-10.23,64.52,0
2361359.0,-0.011,0.021,-0.034,30.52,161.93,0
2361364.0,0.003,0.007,-0.008,38.85,-158.0,0
2361369.0,-0.035,0.024,-0.017,31.06,116.46,0
2361374.0,0.025,-0.017,-0.017,-29.42,-125.24,0
2361379.0,-0.006,-0.022,-0.046,-25.12,172.13,0
2361384.0,-0.002,-0.0,0.04,-0.46,2.29,0
2361389.0,0.006,0.014,0.05,15.73,-6.43,0
2361394.0,-0.011,0.002,0.006,9.13,59.95,0
2361399.0,-0.011,0.002,-0.008,8.62,125.27,0
2361404.0,-0.014,-0.031,-0.034,-40.49,158.38,0
2361409.0,-0.014,0.009,0.05,10.21,15.31,0
2361414.0,0.003,-0.0,0.002,-5.06,-62.3,0
2361419.0,-0.035,0.009,0.021,12.78,59.32,0
2361424.0,0.022,-0.027,-0.027,-37.22,-140.45,0
2361429.0,-0.014,0.009,0.006,31.63,64.52,0
2361434.0,0.01,-0.008,0.006,-31.54,-58.08,0
2361439.0,0.006,-0.017,0.052,-18.1,-6.14,0
2361444.0,-0.016,-0.008,-0.001,-25.15,92.58,0
2361449.0,-0.018,-0.019,0.033,-27.39,29.23,0
2361454.0,-0.028,-0.039,0.004,-53.84,81.71,0
2361459.0,-0.004,0.007,0.023,16.24,9.75,0
2361464.0,-0.004,-0.046,0.009,-78.03,24.25,0
2361469.0,-0.011,0.002,0.014,6.71,39.31,0
2361474.0,-0.009,-0.019,-0.008,-58.76,131.99,0
2361479.0,-0.009,0.007,-0.006,33.52,122.1,0
2361484.0,-0.009,0.009,0.004,43.73,65.13,0
2361489.0,-0.004,-0.015,0.004,-68.79,44.44,0
2361494.0,-0.011,-0.019,0.03,-31.01,20.18,0
2361499.0,0.006,-0.003,-0.006,-19.08,-134.59,0
2361504.0,-0.009,-0.015,0.009,-49.66,44.74,0
2361509.0,-0.018,-0.027,0.002,-55.34,84.78,0
2361514.0,0.006,-0.003,-0.029,-5.17,-169.26,0
2361519.0,-0.021,0.002,-0.017,4.37,130.11,0
2361524.0,-0.018,-0.005,0.021,-10.42,41.39,0
2361529.0,-0.006,0.012,-0.037,17.4,170.11,0
2361534.0,-0.009,-0.008,0.016,-22.31,28.69,0
2361539.0,0.006,-0.022,-0.037,-30.55,-171.33,0
2361544.0,-0.009,-0.015,0.021,-33.01,22.85,0
2361549.0,0.003,0.014,0.002,75.6,-62.3,0
2361554.0,-0.014,-0.022,-0.008,-54.32,120.22,0
2361559.0,-0.002,-0.022,0.026,-40.43,3.57,0
2361564.0,0.003,0.004,0.028,9.01,-6.5,0
2361569.0,-0.006,-0.012,-0.027,-23.85,166.72,0
2361574.0,-0.002,0.009,0.006,54.28,13.87,0
2361579.0,0.015,-0.008,-0.025,-14.53,-148.41,0
2361584.0,-0.021,-0.008,-0.025,-13.1,139.92,0
2361589.0,-0.006,-0.015,0.018,-36.97,19.1,0
2361594.0,-0.009,-0.0,-0.015,-1.05,149.8,0
2361599.0,0.001,-0.022,0.016,-53.7,-2.85,0
2361604.0,-0.002,-0.022,0.016,-53.6,5.68,0
2361609.0,-0.004,-0.034,-0.013,-68.54,162.54,0
2361614.0,-0.011,-0.008,-0.025,-15.49,155.63,0
2361619.0,0.006,-0.005,-0.032,-8.98,-170.05,0
2361624.0,-0.014,-0.015,0.011,-39.8,50.33,0
2361629.0,-0.03,-0.005,-0.034,-6.37,138.47,0
2361634.0,-0.028,-0.019,0.004,-34.6,81.71,0
2361639.0,-0.006,-0.012,0.016,-35.45,21.7,0
2361644.0,-0.009,-0.029,-0.029,-43.39,163.4,0
2361649.0,-0.018,-0.046,-0.003,-67.88,99.62,0
2361654.0,0.01,-0.008,0.002,-35.52,-80.83,0
2361659.0,0.001,-0.022,-0.001,-87.19,-132.02,0
2361664.0,-0.006,-0.003,-0.01,-12.62,148.2,0
2361669.0,0.022,-0.022,-0.01,-41.63,-114.74,0
2361674.0,-0.011,-0.017,0.011,-47.12,44.8,0
2361679.0,0.015,0.002,-0.013,5.99,-129.92,0
2361684.0,0.001,-0.017,-0.015,-48.51,-176.97,0
2361689.0,-0.006,0.021,0.002,72.73,75.29,0
2361694.0,-0.006,0.007,0.006,37.07,44.65,0
2361699.0,-0.009,-0.015,-0.003,-57.61,109.52,0
2361704.0,-0.023,0.021,0.018,35.66,51.46,0
2361709.0,0.006,-0.027,0.033,-38.7,-9.67,0
2361714.0,-0.002,-0.041,-0.037,-48.21,177.51,0
2361719.0,-0.026,-0.015,-0.008,-28.78,107.19,0
2361724.0,0.001,-0.003,0.006,-22.62,-7.04,0
2361729.0,-0.011,-0.008,0.023,-16.23,25.69,0
2361734.0,-0.004,0.012,-0.013,41.22,162.54,0
2361739.0,0.008,-0.01,0.026,-20.24,-17.3,0
2361744.0,0.006,0.002,0.03,3.84,-10.41,0
2361749.0,0.003,-0.022,0.023,-43.01,-7.83,0
2361754.0,-0.018,-0.024,-0.013,-47.39,124.66,0
2361759.0,0.008,-0.008,-0.006,-37.73,-124.61,0
2361764.0,-0.004,0.014,0.014,44.65,16.3,0
2361769.0,0.001,-0.027,-0.037,-36.03,-178.75,0
2361774.0,-0.004,0.002,0.021,5.59,10.85,0
2361779.0,-0.011,-0.015,0.018,-34.26,31.22,0
2361784.0,0.001,0.009,0.023,21.72,-1.97,0
2361789.0,-0.006,-0.0,0.021,-0.84,17.04,0
2361794.0,-0.002,-0.031,-0.046,-34.22,178.02,0
2361799.0,-0.028,-0.036,0.011,-50.27,68.06,0
2361804.0,-0.021,0.016,-0.015,32.65,126.02,0
2361809.0,0.018,-0.036,-0.022,-51.95,-141.74,0
2361814.0,0.001,-0.019,-0.027,-35.73,-178.31,0
2361819.0,-0.009,-0.003,0.04,-3.79,12.38,0
2361824.0,-0.002,-0.019,0.047,-22.42,1.94,0
2361829.0,0.003,-0.022,-0.029,-36.43,-173.81,0
2361834.0,-0.021,-0.039,-0.006,-60.94,104.86,0
2361839.0,-0.002,-0.022,0.021,-46.31,4.38,0
2361844.0,0.003,-0.029,0.009,-72.04,-19.82,0
2361849.0,0.001,0.014,-0.029,25.49,-178.45,0
2361854.0,0.008,0.021,0.009,60.68,-42.02,0
2361859.0,-0.004,0.012,-0.003,66.52,127.96,0
2361864.0,-0.023,-0.01,0.045,-11.11,27.34,0
2361869.0,-0.006,0.014,0.004,61.67,57.49,0
2361874.0,0.001,-0.019,0.011,-59.92,-4.06,0
2361879.0,-0.011,-0.005,0.023,-11.21,25.69,0
2361884.0,-0.014,-0.003,0.028,-4.98,25.84,0
2361889.0,0.02,-0.058,-0.017,-65.34,-131.22,0
2361894.0,-0.035,-0.027,-0.051,-23.29,145.45,0
2361899.0,-0.004,-0.017,-0.039,-23.53,174.16,0
2361904.0,0.032,-0.003,0.018,-4.21,-59.99,0
2361909.0,-0.04,-0.003,-0.001,-3.89,91.03,0
2361914.0,-0.016,0.007,-0.017,16.17,137.6,0
2361919.0,0.003,0.014,0.002,75.6,-62.3,0
2361924.0,-0.014,-0.008,-0.034,-11.51,158.38,0
2361929.0,0.008,-0.019,-0.003,-66.26,-111.31,0
2361934.0,0.01,-0.027,-0.022,-47.34,-155.02,0
2361939.0,-0.002,-0.01,-0.008,-50.84,168.58,0
2361944.0,-0.006,0.007,-0.013,25.79,153.29,0
2361949.0,0.006,-0.022,0.016,-52.16,-19.2,0
2361954.0,0.006,-0.022,0.023,-42.47,-13.53,0
2361959.0,-0.03,0.021,-0.013,32.85,112.71,0
2361964.0,0.02,0.007,0.006,18.12,-72.05,0
2361969.0,-0.023,-0.027,0.016,-43.43,55.27,0
2361974.0,0.006,-0.01,-0.013,-35.52,-156.24,0
2361979.0,-0.026,-0.027,-0.003,-46.02,96.95,0
2361984.0,0.006,-0.005,-0.01,-23.56,-151.52,0
2361989.0,-0.004,0.002,-0.006,16.97,144.08,0
2361994.0,-0.014,-0.012,0.038,-17.1,19.85,0
2361999.0,-0.018,-0.012,0.016,-26.76,48.85,0
2362004.0,-0.021,-0.003,-0.013,-6.37,121.45,0
2362009.0,0.01,0.004,0.006,20.08,-58.08,0
2362014.0,0.001,0.007,-0.022,17.12,-177.95,0
2362019.0,0.039,0.007,-0.022,8.67,-119.66,0
2362024.0,-0.004,-0.005,0.014,-19.76,16.3,0
2362029.0,-0.042,0.016,0.026,18.39,58.8,0
2362034.0,0.022,-0.029,0.009,-50.39,-68.38,0
2362039.0,-0.014,0.002,0.03,3.57,24.05,0
2362044.0,-0.004,-0.015,-0.015,-43.26,165.18,0
2362049.0,-0.002,-0.022,-0.029,-36.55,176.9,0
2362054.0,-0.002,-0.01,-0.001,-79.97,114.25,0
2362059.0,-0.014,-0.01,0.011,-29.31,50.33,0
2362064.0,-0.004,-0.012,-0.017,-34.43,167.14,0
2362069.0,-0.009,0.004,-0.008,20.73,131.99,0
2362074.0,0.008,-0.01,0.045,-12.28,-10.11,0
2362079.0,-0.002,0.002,0.038,3.16,2.43,0
2362084.0,-0.035,-0.024,-0.015,-32.41,113.25,0
2362089.0,0.013,-0.015,0.016,-35.61,-38.52,0
2362094.0,0.003,0.012,0.002,72.81,-62.3,0
2362099.0,0.01,-0.003,0.035,-4.23,-16.42,0
2362104.0,0.015,-0.019,-0.015,-42.32,-134.85,0
2362109.0,-0.009,-0.019,0.004,-63.58,65.13,0
2362114.0,0.003,0.009,-0.003,64.28,-134.28,0
2362119.0,-0.014,-0.022,-0.041,-26.64,161.86,0
2362124.0,-0.028,-0.031,0.035,-34.98,38.44,0
2362129.0,0.006,-0.0,0.018,-0.95,-16.86,0
2362134.0,-0.011,-0.022,-0.008,-57.96,125.27,0
2362139.0,0.003,-0.019,-0.022,-40.88,-171.84,0
2362144.0,-0.002,-0.015,0.014,-46.9,6.67,0
2362149.0,-0.006,0.014,-0.017,37.05,159.93,0
2362154.0,-0.002,-0.003,-0.063,-2.47,178.55,0
2362159.0,-0.026,-0.027,0.023,-37.68,47.72,0
2362164.0,0.01,-0.012,0.006,-45.16,-58.08,0
2362169.0,-0.006,-0.027,0.023,-47.9,15.37,0
2362174.0,0.022,0.002,0.023,3.68,-43.9,0
2362179.0,-0.011,-0.019,-0.022,-38.01,153.35,0
2362184.0,-0.011,-0.024,-0.013,-55.13,138.64,0
2362189.0,-0.006,0.009,-0.008,42.34,141.06,0
2362194.0,-0.002,-0.034,-0.022,-56.59,175.9,0
2362199.0,-0.009,-0.005,0.004,-27.83,65.13,0
2362204.0,-0.014,-0.008,0.026,-14.51,27.91,0
2362209.0,0.015,-0.008,0.018,-17.45,-39.44,0
2362214.0,-0.035,-0.015,0.014,-21.3,68.76,0
2362219.0,0.015,0.007,0.021,14.92,-36.05,0
2362224.0,-0.021,-0.015,0.004,-34.78,78.9,0
2362229.0,0.001,-0.008,0.018,-22.12,-2.48,0
2362234.0,-0.009,-0.01,0.018,-25.86,25.46,0
2362239.0,-0.023,0.002,-0.032,3.02,143.99,0
2362244.0,0.013,-0.015,0.023,-28.99,-28.8,0
2362249.0,-0.009,-0.019,0.018,-43.64,25.46,0
2362254.0,0.018,-0.003,0.004,-8.56,-76.95,0
2362259.0,-0.009,0.009,-0.01,34.38,139.55,0
2362264.0,0.003,-0.015,-0.027,-28.33,-173.27,0
2362269.0,-0.021,-0.024,0.011,-45.79,61.53,0
2362274.0,-0.002,-0.022,0.021,-46.31,4.38,0
2362279.0,0.003,-0.041,0.004,-82.81,-38.11,0
2362284.0,-0.006,0.007,0.023,15.91,15.37,0
2362289.0,0.001,-0.005,0.016,-17.64,-2.85,0
2362294.0,-0.018,-0.027,0.006,-53.87,70.6,0
2362299.0,-0.026,0.002,-0.003,4.61,96.95,0
2362304.0,0.003,-0.003,-0.01,-14.13,-162.77,0
2362309.0,0.01,0.021,0.011,54.21,-42.68,0
2362314.0,0.018,0.012,-0.02,23.72,-138.54,0
2362319.0,-0.021,-0.019,-0.006,-42.21,104.86,0
2362324.0,0.006,-0.024,-0.003,-75.23,-119.13,0
2362329.0,-0.03,-0.029,-0.027,-35.56,131.74,0
2362334.0,-0.006,-0.017,-0.008,-59.26,141.06,0
2362339.0,0.032,0.004,-0.027,6.1,-130.28,0
2362344.0,-0.016,0.016,-0.013,38.88,128.49,0
2362349.0,-0.011,-0.005,-0.013,-16.81,138.64,0
2362354.0,-0.047,0.007,-0.001,8.29,90.87,0
2362359.0,-0.026,-0.022,0.03,-28.84,40.03,0
2362364.0,-0.011,0.016,-0.008,50.23,125.27,0
2362369.0,-0.004,-0.034,0.028,-50.1,8.11,0
2362374.0,-0.011,-0.031,0.018,-55.57,31.22,0
2362379.0,-0.021,-0.019,-0.001,-43.16,91.98,0
2362384.0,-0.016,-0.012,-0.027,-21.37,149.46,0
2362389.0,-0.018,0.028,-0.006,56.0,106.7,0
2362394.0,0.001,-0.003,0.023,-6.66,-1.97,0
2362399.0,-0.038,-0.017,0.009,-23.9,76.71,0
2362404.0,0.018,-0.003,0.014,-6.96,-52.14,0
2362409.0,0.008,0.007,-0.049,7.93,-170.68,0
2362414.0,-0.014,-0.015,-0.02,-31.39,145.68,0
2362419.0,-0.006,-0.017,0.018,-41.2,19.1,0
2362424.0,-0.026,-0.017,0.042,-19.04,31.08,0
2362429.0,0.018,0.004,0.006,13.43,-69.79,0
2362434.0,-0.011,-0.034,-0.039,-39.81,164.02,0
2362439.0,0.018,-0.015,0.014,-33.44,-52.14,0
2362444.0,-0.002,-0.01,0.028,-19.43,3.26,0
2362449.0,-0.002,0.026,-0.006,77.57,163.84,0
2362454.0,-0.011,-0.01,-0.013,-30.34,138.64,0
2362459.0,-0.021,0.038,-0.025,49.69,139.92,0
2362464.0,0.006,-0.005,0.002,-41.21,-73.3,0
2362469.0,-0.009,-0.015,0.014,-42.14,32.75,0
2362474.0,0.001,0.002,0.042,2.8,-1.08,0
2362479.0,-0.059,0.012,-0.003,11.15,93.02,0
2362484.0,0.032,0.012,-0.006,19.78,-99.79,0
2362489.0,-0.112,-0.031,-0.008,-15.68,94.05,0
2362494.0,0.075,-0.003,0.006,-2.06,-85.08,0
2362499.0,-0.004,0.002,0.016,7.16,13.97,0
2362504.0,-0.033,-0.077,-0.01,-65.97,107.47,0
2362509.0,0.092,0.057,0.026,30.95,-74.4,0
2362514.0,-0.191,0.007,-0.02,2.05,95.95,0
2362519.0,0.101,-0.149,0.026,-54.9,-75.82,0
2362524.0,-0.117,0.074,0.052,30.08,65.97,0
2362529.0,-0.04,0.261,-0.492,27.86,175.36,0
2362534.0,-0.023,-0.158,0.363,-23.51,3.65,0
2362539.0,0.37,-0.204,0.385,-20.91,-43.84,0
2362544.0,-0.133,-0.331,0.023,-67.75,80.12,0
2362549.0,-0.205,0.244,-0.164,42.92,128.56,0
2362554.0,0.267,0.4,0.129,53.47,-64.25,0
2362559.0,-0.332,-0.623,-0.245,-56.48,126.42,0
2362564.0,-0.315,0.349,-0.085,46.94,105.01,0
2362569.0,-0.172,-0.206,-0.666,-16.68,165.56,0
2362574.0,-0.354,0.67,-0.336,53.95,133.53,0
2362579.0,-0.006,-0.23,-0.257,-41.85,178.58,0
2362584.0,-0.071,-0.551,0.184,-70.34,21.15,0
2362589.0,0.037,-0.055,-0.08,-32.25,-155.28,0
2362594.0,0.065,0.299,0.081,70.84,-39.05,0
2362599.0,-0.09,-0.01,0.047,-5.55,62.39,0
2362604.0,0.101,0.299,0.464,32.2,-12.33,0
2362609.0,-0.124,-0.28,-0.295,-41.22,157.26,0
2362614.0,0.195,0.244,0.042,50.75,-77.72,0
2362619.0,-0.16,-0.185,-0.077,-46.16,115.85,0
2362624.0,0.188,0.009,0.279,1.58,-33.87,0
2362629.0,0.058,-0.07,-0.008,-49.87,-97.72,0
2362634.0,0.295,0.055,0.344,6.89,-40.64,0
2362639.0,-0.078,-0.216,-0.029,-68.83,110.63,0
2362644.0,0.164,0.222,0.26,35.88,-32.16,0
2362649.0,-0.105,-0.211,-0.029,-62.76,105.73,0
2362654.0,0.188,0.337,0.205,50.5,-42.43,0
2362659.0,-0.109,-0.292,-0.135,-59.31,140.95,0
2362664.0,0.152,0.225,0.208,41.16,-36.15,0
2362669.0,-0.042,-0.233,0.035,-76.69,50.24,0
2362674.0,0.346,0.265,0.296,30.25,-49.4,0
2362679.0,-0.093,-0.326,-0.106,-66.64,138.88,0
2362684.0,0.269,0.265,0.33,31.96,-39.21,0
2362689.0,-0.069,-0.261,0.033,-73.77,64.46,0
2362694.0,0.211,0.277,0.229,41.66,-42.71,0
2362699.0,-0.126,-0.242,-0.147,-51.37,139.33,0
2362704.0,0.159,0.215,0.208,39.46,-37.42,0
2362709.0,-0.088,-0.12,-0.061,-48.38,124.61,0
2362714.0,0.235,0.218,0.227,33.65,-46.08,0
2362719.0,-0.076,-0.297,-0.003,-75.68,92.35,0
2362724.0,0.2,0.22,0.169,40.05,-49.69,0
2362729.0,-0.011,-0.11,-0.008,-82.94,125.27,0
2362734.0,0.188,0.323,0.27,44.5,-34.8,0
2362739.0,-0.049,-0.393,-0.065,-78.22,142.87,0
2362744.0,0.101,0.167,0.129,45.62,-38.25,0
2362749.0,-0.028,-0.149,-0.001,-79.36,91.47,0
2362754.0,0.18,0.364,0.356,42.34,-26.87,0
2362759.0,0.003,-0.369,-0.003,-89.31,-134.28,0
2362764.0,0.154,0.081,0.16,20.08,-43.97,0
2362769.0,-0.016,-0.115,0.071,-57.69,12.65,0
2362774.0,0.092,0.33,0.229,53.21,-21.83,0
2362779.0,0.101,-0.185,0.002,-61.24,-89.05,0
2362784.0,0.147,0.062,0.15,16.43,-44.37,0
2362789.0,-0.052,-0.278,0.009,-79.28,80.31,0
2362794.0,0.144,0.311,0.196,51.97,-36.45,0
2362799.0,0.073,-0.13,0.066,-52.81,-47.6,0
2362804.0,0.104,0.131,0.203,29.97,-27.09,0
2362809.0,-0.042,-0.23,-0.061,-72.2,145.07,0
2362814.0,0.147,0.325,0.157,56.51,-43.03,0
2362819.0,0.025,-0.177,0.062,-69.51,-21.9,0
2362824.0,0.132,0.155,0.179,34.91,-36.53,0
2362829.0,0.025,-0.295,-0.02,-83.86,-128.77,0
2362834.0,0.149,0.17,0.232,31.63,-32.81,0
2362839.0,0.118,-0.118,0.097,-37.53,-50.48,0
2362844.0,0.097,0.22,0.181,46.96,-28.05,0
2362849.0,0.006,-0.096,0.042,-66.02,-7.51,0
2362854.0,0.125,0.237,0.167,48.6,-36.9,0
2362859.0,0.135,-0.233,0.102,-53.96,-52.84,0
2362864.0,0.056,0.021,0.117,9.32,-25.6,0
2362869.0,0.056,-0.065,0.014,-48.48,-76.27,0
2362874.0,0.046,0.246,0.145,58.23,-17.67,0
2362879.0,0.073,-0.118,-0.381,-16.86,-169.22,0
2362884.0,0.041,0.067,0.105,30.66,-21.64,0
2362889.0,0.006,-0.161,0.023,-81.55,-13.53,0
2362894.0,0.063,0.206,0.105,59.28,-31.07,0
2362899.0,0.132,-0.067,0.081,-23.47,-58.66,0
2362904.0,0.013,0.036,0.088,21.84,-8.27,0
2362909.0,0.046,-0.103,0.042,-58.71,-47.53,0
2362914.0,-0.078,0.122,-0.02,56.47,104.26,0
2362919.0,0.073,-0.383,-0.211,-59.76,-161.04,0
2362924.0,-0.047,-0.027,0.078,-16.27,31.02,0
2362929.0,0.123,-0.072,0.04,-29.17,-71.98,0
2362934.0,-0.04,0.139,0.016,72.75,68.1,0
2362939.0,0.219,0.074,-0.362,9.91,-148.88,0
2362944.0,0.015,0.045,0.145,17.18,-5.96,0
2362949.0,0.113,-0.158,-0.302,-26.12,-159.46,0
2362954.0,-0.054,0.069,0.117,28.25,24.96,0
2362959.0,-0.401,-0.276,-0.29,-29.09,125.88,0
2362964.0,-0.049,-0.012,0.069,-8.26,35.76,0
2362969.0,0.089,-0.003,-0.231,-0.63,-158.81,0
2362974.0,-0.128,-0.017,0.176,-4.47,36.06,0
2362979.0,0.18,-0.371,-0.322,-45.21,-150.71,0
2362984.0,-0.143,0.227,0.126,50.0,48.55,0
2362989.0,0.173,-0.201,-0.197,-37.52,-138.69,0
2362994.0,-0.049,0.143,0.136,44.77,20.03,0
2362999.0,-0.401,-0.292,-0.379,-27.91,133.35,0
2363004.0,-0.097,0.39,0.227,57.67,23.24,0
2363009.0,0.128,-0.233,-0.231,-41.42,-151.02,0
2363014.0,-0.198,0.004,0.157,1.01,51.52,0
2363019.0,0.161,-0.285,-0.283,-41.19,-150.35,0
2363024.0,0.166,0.328,0.153,55.48,-47.42,0
2363029.0,-0.246,-0.216,-0.223,-33.01,132.26,0
2363034.0,0.245,0.146,0.162,26.38,-56.51,0
2363039.0,-0.366,-0.367,-0.257,-39.37,125.1,0
2363044.0,0.221,0.287,0.119,48.82,-61.71,0
2363049.0,-0.272,-0.185,-0.204,-28.49,126.89,0
2363054.0,0.156,0.208,0.241,35.89,-32.98,0
2363059.0,-0.342,-0.35,-0.302,-37.49,131.52,0
2363064.0,0.228,0.198,0.107,38.2,-64.88,0
2363069.0,-0.253,-0.113,-0.183,-19.88,125.83,0
2363074.0,0.147,0.093,0.138,24.78,-46.75,0
2363079.0,-0.354,-0.326,-0.269,-36.27,127.25,0
2363084.0,0.238,0.318,0.2,45.65,-49.88,0
2363089.0,-0.229,-0.206,-0.204,-33.9,131.72,0
2363094.0,0.295,0.158,0.203,23.76,-55.52,0
2363099.0,-0.301,-0.391,-0.243,-45.3,128.87,0
2363104.0,0.202,0.258,0.191,42.91,-46.62,0
2363109.0,-0.284,-0.166,-0.214,-24.96,126.96,0
2363114.0,0.262,0.17,0.224,26.2,-49.4,0
2363119.0,-0.322,-0.357,-0.171,-44.38,117.9,0
2363124.0,0.207,0.335,0.174,51.1,-49.9,0
2363129.0,-0.251,-0.199,-0.247,-29.48,134.62,0
2363134.0,0.274,0.215,0.265,29.45,-45.93,0
2363139.0,-0.224,-0.424,-0.135,-58.33,121.01,0
2363144.0,0.228,0.21,0.217,33.73,-46.43,0
2363149.0,-0.207,-0.149,-0.104,-32.67,116.55,0
2363154.0,0.326,0.299,0.287,34.54,-48.72,0
2363159.0,-0.246,-0.426,-0.19,-53.94,127.68,0
2363164.0,0.235,0.234,0.236,35.09,-44.89,0
2363169.0,-0.16,-0.13,-0.154,-30.3,133.96,0
2363174.0,0.231,0.232,0.184,38.19,-51.47,0
2363179.0,-0.21,-0.223,-0.168,-39.65,128.73,0
2363184.0,0.257,0.198,0.265,28.25,-44.12,0
2363189.0,-0.14,-0.182,-0.106,-46.0,127.06,0
2363194.0,0.221,0.206,0.243,32.01,-42.24,0
2363199.0,-0.217,-0.28,-0.195,-43.89,131.88,0
2363204.0,0.204,0.251,0.243,38.31,-40.0,0
2363209.0,-0.234,-0.233,-0.214,-36.28,132.44,0
2363214.0,0.231,0.222,0.133,39.85,-59.96,0
2363219.0,-0.222,-0.302,-0.142,-48.9,122.62,0
2363224.0,0.137,0.244,0.215,43.74,-32.59,0
2363229.0,-0.131,-0.211,-0.18,-43.45,144.02,0
2363234.0,0.216,0.208,0.301,29.3,-35.7,0
2363239.0,-0.109,-0.273,-0.073,-64.35,123.56,0
2363244.0,0.089,0.196,0.153,47.95,-30.37,0
2363249.0,-0.109,-0.189,-0.132,-47.81,140.45,0
2363254.0,0.243,0.28,0.296,36.16,-39.32,0
2363259.0,-0.112,-0.336,-0.123,-63.67,137.71,0
2363264.0,0.147,0.198,0.174,41.06,-40.15,0
2363269.0,-0.097,-0.139,-0.14,-39.28,145.1,0
2363274.0,0.197,0.222,0.21,37.67,-43.19,0
2363279.0,-0.117,-0.331,-0.108,-64.3,132.95,0
2363284.0,0.18,0.23,0.224,38.57,-38.8,0
2363289.0,-0.133,-0.247,-0.051,-59.98,110.94,0
2363294.0,0.324,0.34,0.279,38.45,-49.23,0
2363299.0,-0.095,-0.369,-0.034,-74.7,109.82,0
2363304.0,0.243,0.299,0.294,38.12,-39.55,0
2363309.0,-0.057,-0.233,0.04,-73.4,54.79,0
2363314.0,0.295,0.261,0.27,33.09,-47.58,0
2363319.0,-0.066,-0.268,-0.118,-63.24,150.7,0
2363324.0,0.2,0.213,0.265,32.67,-36.97,0
2363329.0,-0.107,-0.278,-0.101,-62.09,133.44,0
2363334.0,0.269,0.309,0.265,39.25,-45.42,0
2363339.0,-0.076,-0.266,0.03,-72.93,68.15,0
2363344.0,0.154,0.249,0.2,44.53,-37.55,0
2363349.0,-0.038,-0.211,-0.096,-63.87,158.76,0
2363354.0,0.25,0.182,0.284,25.64,-41.31,0
2363359.0,-0.076,-0.398,-0.037,-78.05,115.79,0
2363364.0,0.109,0.22,0.133,51.98,-39.14,0
2363369.0,-0.006,-0.197,-0.089,-65.52,175.91,0
2363374.0,0.207,0.364,0.33,43.06,-32.09,0
2363379.0,-0.021,-0.307,0.004,-86.06,78.9,0
2363384.0,0.142,0.184,0.176,39.09,-38.84,0
2363389.0,-0.016,-0.151,-0.006,-83.63,109.04,0
2363394.0,0.209,0.294,0.267,40.91,-38.02,0
2363399.0,-0.023,-0.259,0.006,-84.7,74.4,0
2363404.0,0.118,0.182,0.157,42.72,-36.9,0
2363409.0,0.037,-0.235,-0.02,-79.93,-118.43,0
2363414.0,0.207,0.383,0.27,48.39,-37.45,0
2363419.0,0.01,-0.379,0.062,-80.64,-9.57,0
2363424.0,0.142,0.249,0.21,44.45,-34.08,0
2363429.0,-0.021,-0.252,0.002,-85.27,85.38,0
2363434.0,0.149,0.388,0.227,54.99,-33.35,0
2363439.0,0.085,-0.194,0.119,-53.07,-35.41,0
2363444.0,0.087,0.215,0.138,52.81,-32.2,0
2363449.0,-0.011,-0.343,-0.053,-80.96,168.18,0
2363454.0,0.171,0.344,0.145,56.93,-49.6,0
2363459.0,0.041,-0.206,0.085,-65.26,-25.9,0
2363464.0,0.087,0.141,0.124,42.97,-35.1,0
2363469.0,-0.014,-0.18,-0.061,-70.96,167.38,0
2363474.0,0.152,0.282,0.169,51.16,-41.85,0
2363479.0,0.008,-0.177,-0.317,-29.26,-178.56,0
2363484.0,0.068,0.177,0.105,54.81,-32.96,0
2363489.0,0.022,-0.199,-0.017,-81.89,-128.03,0
2363494.0,0.058,0.249,0.107,63.9,-28.56,0
2363499.0,0.034,-0.161,0.045,-70.66,-37.47,0
2363504.0,0.001,0.134,0.09,55.99,-0.51,0
2363509.0,0.063,-0.144,0.014,-65.86,-77.79,0
2363514.0,0.001,0.151,0.15,45.08,-0.3,0
2363519.0,0.137,-0.422,-0.381,-46.13,-160.21,0
2363524.0,-0.042,0.249,0.105,65.59,22.01,0
2363529.0,0.056,-0.206,0.047,-70.48,-49.83,0
2363534.0,0.144,0.191,0.121,45.38,-49.96,0
2363539.0,0.101,-0.142,0.164,-36.23,-31.64,0
2363544.0,0.087,0.057,0.124,20.69,-35.1,0
2363549.0,0.097,-0.11,-0.396,-15.17,-166.29,0
2363554.0,-0.004,0.208,0.064,72.88,3.57,0
2363559.0,-0.421,-0.285,-0.329,-28.12,128.01,0
2363564.0,0.037,-0.022,0.124,-9.61,-16.52,0
2363569.0,0.113,-0.055,-0.286,-10.22,-158.36,0
2363574.0,-0.016,0.093,0.167,29.03,5.46,0
2363579.0,0.113,0.048,-0.322,7.94,-160.59,0
2363584.0,-0.085,0.072,0.15,22.49,29.63,0
2363589.0,0.13,-0.268,-0.243,-44.29,-151.79,0
2363594.0,-0.102,0.21,0.15,49.2,34.23,0
2363599.0,-0.346,-0.357,-0.266,-39.25,127.57,0
2363604.0,-0.064,0.359,0.176,62.39,19.89,0
2363609.0,0.044,-0.256,-0.216,-49.3,-168.52,0
2363614.0,-0.097,0.122,0.121,38.05,38.73,0
2363619.0,0.092,-0.307,-0.283,-45.86,-162.05,0
2363624.0,-0.083,0.285,0.22,50.49,20.71,0
2363629.0,0.156,-0.245,-0.152,-48.31,-134.09,0
2363634.0,0.247,0.218,0.153,36.82,-58.35,0
2363639.0,-0.418,-0.314,-0.326,-30.62,127.97,0
2363644.0,0.3,0.225,0.174,32.94,-59.88,0
2363649.0,-0.344,-0.28,-0.223,-34.36,123.0,0
2363654.0,0.168,0.213,0.172,41.5,-44.45,0
2363659.0,-0.375,-0.316,-0.367,-31.08,134.38,0
2363664.0,0.231,0.273,0.145,45.0,-57.78,0
2363669.0,-0.265,-0.221,-0.216,-32.82,129.21,0
2363674.0,0.267,0.131,0.251,19.75,-46.76,0
2363679.0,-0.246,-0.376,-0.144,-52.85,120.43,0
2363684.0,0.228,0.206,0.155,36.7,-55.84,0
2363689.0,-0.246,-0.197,-0.168,-33.43,124.4,0
2363694.0,0.24,0.129,0.222,21.52,-47.26,0
2363699.0,-0.375,-0.362,-0.264,-38.27,125.15,0
2363704.0,0.178,0.337,0.105,58.53,-59.55,0
2363709.0,-0.263,-0.233,-0.274,-31.52,136.19,0
2363714.0,0.221,0.206,0.287,29.6,-37.65,0
2363719.0,-0.445,-0.393,-0.343,-34.99,127.66,0
2363724.0,0.271,0.249,0.109,40.36,-68.04,0
2363729.0,-0.373,-0.194,-0.216,-24.27,120.12,0
2363734.0,0.25,0.076,0.241,12.39,-46.02,0
2363739.0,-0.351,-0.283,-0.278,-32.26,128.41,0
2363744.0,0.216,0.179,0.196,31.58,-47.87,0
2363749.0,-0.217,-0.161,-0.147,-31.52,124.06,0
2363754.0,0.281,0.182,0.22,27.0,-51.99,0
2363759.0,-0.26,-0.371,-0.233,-46.76,131.84,0
2363764.0,0.269,0.208,0.294,27.57,-42.47,0
2363769.0,-0.243,-0.182,-0.199,-30.08,129.33,0
2363774.0,0.305,0.134,0.251,18.72,-50.57,0
2363779.0,-0.229,-0.347,-0.108,-53.9,115.34,0
2363784.0,0.195,0.227,0.253,35.42,-37.58,0
2363789.0,-0.131,-0.187,-0.175,-40.51,143.28,0
2363794.0,0.223,0.294,0.277,39.58,-38.89,0
2363799.0,-0.174,-0.398,-0.101,-63.16,120.2,0
2363804.0,0.247,0.237,0.227,35.2,-47.5,0
2363809.0,-0.196,-0.182,-0.166,-35.41,130.32,0
2363814.0,0.247,0.218,0.255,31.46,-44.08,0
2363819.0,-0.196,-0.307,-0.207,-47.16,136.58,0
2363824.0,0.223,0.198,0.229,31.79,-44.28,0
2363829.0,-0.167,-0.209,-0.159,-42.18,133.58,0
2363834.0,0.259,0.275,0.229,38.47,-48.54,0
2363839.0,-0.224,-0.347,-0.161,-51.53,125.7,0
2363844.0,0.202,0.273,0.186,44.8,-47.34,0
2363849.0,-0.157,-0.163,-0.111,-40.3,125.19,0
2363854.0,0.235,0.172,0.227,27.76,-46.08,0
2363859.0,-0.222,-0.304,-0.164,-47.84,126.39,0
2363864.0,0.144,0.191,0.205,37.31,-35.15,0
2363869.0,-0.138,-0.175,-0.204,-35.39,145.94,0
2363874.0,0.231,0.297,0.26,40.46,-41.55,0
2363879.0,-0.239,-0.376,-0.166,-52.31,124.81,0
2363884.0,0.223,0.253,0.186,41.08,-50.22,0
2363889.0,-0.162,-0.173,-0.144,-38.51,131.71,0
2363894.0,0.262,0.256,0.22,36.83,-50.01,0
2363899.0,-0.172,-0.391,-0.187,-56.95,137.53,0
2363904.0,0.121,0.198,0.157,45.04,-37.46,0
2363909.0,-0.138,-0.192,-0.18,-40.19,142.55,0
2363914.0,0.207,0.318,0.243,44.88,-40.33,0
2363919.0,-0.109,-0.333,-0.089,-67.03,129.24,0
2363924.0,0.166,0.165,0.172,34.62,-44.04,0
2363929.0,-0.157,-0.23,-0.171,-44.76,137.36,0
2363934.0,0.149,0.297,0.169,52.73,-41.4,0
2363939.0,-0.09,-0.216,-0.092,-59.21,135.48,0
2363944.0,0.123,0.194,0.184,41.22,-33.79,0
2363949.0,-0.083,-0.175,-0.106,-52.43,141.96,0
2363954.0,0.257,0.335,0.227,44.34,-48.58,0
2363959.0,-0.088,-0.419,-0.075,-74.61,130.49,0
2363964.0,0.116,0.251,0.162,51.58,-35.52,0
2363969.0,-0.023,-0.168,-0.044,-73.56,152.16,0
2363974.0,0.288,0.347,0.289,40.36,-44.91,0
2363979.0,-0.078,-0.34,0.006,-77.01,85.28,0
2363984.0,0.209,0.158,0.222,27.35,-43.29,0
2363989.0,-0.021,-0.261,-0.015,-84.39,126.02,0
2363994.0,0.195,0.404,0.308,47.96,-32.29,0
2363999.0,-0.052,-0.283,0.03,-78.0,59.62,0
2364004.0,0.171,0.206,0.191,38.76,-41.83,0
2364009.0,-0.064,-0.268,-0.101,-65.97,147.77,0
2364014.0,0.259,0.361,0.253,44.91,-45.71,0
2364019.0,-0.117,-0.333,-0.108,-64.46,132.95,0
2364024.0,0.154,0.27,0.15,51.48,-45.74,0
2364029.0,-0.066,-0.261,-0.108,-64.06,148.59,0
2364034.0,0.166,0.282,0.265,42.06,-32.06,0
2364039.0,-0.059,-0.295,0.035,-76.87,59.21,0
2364044.0,0.08,0.198,0.136,51.56,-30.45,0
2364049.0,-0.054,-0.173,-0.094,-57.83,150.03,0
2364054.0,0.216,0.407,0.287,48.56,-37.04,0
2364059.0,0.044,-0.333,0.083,-74.25,-27.85,0
2364064.0,0.185,0.155,0.236,27.35,-38.08,0
2364069.0,-0.009,-0.3,-0.041,-81.96,168.03,0
2364074.0,0.204,0.361,0.234,49.31,-41.13,0
2364079.0,-0.014,-0.266,-0.314,-40.22,177.53,0
2364084.0,0.087,0.222,0.153,51.7,-29.7,0
2364089.0,-0.028,-0.228,-0.041,-77.63,146.01,0
2364094.0,0.168,0.251,0.167,46.64,-45.26,0
2364099.0,0.02,-0.182,0.023,-80.47,-40.67,0
2364104.0,0.085,0.129,0.196,31.18,-23.39,0
2364109.0,-0.006,-0.211,-0.022,-83.74,164.0,0
2364114.0,0.041,0.313,0.114,68.8,-19.97,0
2364119.0,0.065,-0.352,-0.192,-60.04,-161.2,0
2364124.0,0.001,0.143,0.124,49.19,-0.37,0
2364129.0,0.037,-0.12,0.014,-71.93,-69.61,0
2364134.0,0.097,0.297,0.188,54.48,-27.13,0
2364139.0,0.065,-0.29,0.105,-66.95,-32.03,0
2364144.0,0.08,0.112,0.052,49.68,-56.94,0
2364149.0,0.02,-0.089,-0.013,-75.11,-122.46,0
2364154.0,-0.004,0.332,0.172,62.69,1.33,0
2364159.0,0.116,-0.474,-0.372,-50.62,-162.71,0
2364164.0,0.073,0.134,0.143,39.84,-26.94,0
2364169.0,0.032,-0.235,-0.312,-36.84,-174.16,0
2364174.0,0.025,0.191,0.148,51.93,-9.51,0
2364179.0,0.104,-0.067,-0.271,-13.06,-159.07,0
2364184.0,0.027,0.086,0.15,29.38,-10.25,0
2364189.0,0.092,-0.189,-0.413,-24.15,-167.46,0
2364194.0,0.003,0.17,0.076,65.88,-2.41,0
2364199.0,-0.452,-0.41,-0.35,-35.63,127.79,0
2364204.0,-0.033,0.27,0.126,64.25,14.54,0
2364209.0,0.113,-0.328,-0.31,-44.88,-159.89,0
2364214.0,-0.038,0.215,0.248,40.59,8.59,0
2364219.0,0.111,-0.336,-0.266,-49.29,-157.4,0
2364224.0,-0.085,0.366,0.174,62.09,26.13,0
2364229.0,0.113,-0.352,-0.231,-53.9,-153.83,0
2364234.0,-0.076,0.191,0.186,43.59,22.17,0
2364239.0,-0.334,-0.297,-0.233,-36.1,124.86,0
2364244.0,-0.071,0.321,0.186,58.15,20.9,0
2364249.0,-0.272,-0.324,-0.228,-42.33,129.98,0
2364254.0,0.214,0.148,0.157,29.16,-53.67,0
2364259.0,-0.478,-0.3,-0.403,-25.6,130.13,0
2364264.0,0.281,0.246,0.179,36.48,-57.52,0
2364269.0,-0.454,-0.264,-0.336,-25.02,126.49,0
2364274.0,0.125,0.225,0.057,58.53,-65.64,0
2364279.0,-0.373,-0.367,-0.353,-35.55,133.42,0
2364284.0,0.176,0.275,0.179,47.66,-44.47,0
2364289.0,-0.337,-0.261,-0.324,-29.21,133.89,0
2364294.0,0.156,0.064,0.05,21.41,-72.42,0
2364299.0,-0.37,-0.336,-0.274,-36.08,126.46,0
2364304.0,0.173,0.33,0.15,55.23,-49.08,0
2364309.0,-0.33,-0.187,-0.305,-22.62,132.76,0
2364314.0,0.216,0.119,0.198,22.15,-47.53,0
2364319.0,-0.37,-0.41,-0.233,-43.12,122.17,0
2364324.0,0.185,0.318,0.148,53.33,-51.42,0
2364329.0,-0.265,-0.211,-0.269,-29.2,135.42,0
2364334.0,0.2,0.189,0.186,34.69,-47.0,0
2364339.0,-0.351,-0.369,-0.324,-37.68,132.69,0
2364344.0,0.269,0.182,0.205,28.23,-52.66,0
2364349.0,-0.315,-0.206,-0.187,-29.35,120.74,0
2364354.0,0.19,0.258,0.16,46.14,-49.94,0
2364359.0,-0.296,-0.316,-0.295,-37.11,134.92,0
2364364.0,0.221,0.177,0.236,28.66,-43.09,0
2364369.0,-0.246,-0.218,-0.173,-35.97,125.15,0
2364374.0,0.295,0.213,0.196,30.99,-56.48,0
2364379.0,-0.399,-0.319,-0.274,-33.38,124.44,0
2364384.0,0.211,0.27,0.174,44.61,-50.55,0
2364389.0,-0.224,-0.307,-0.197,-45.78,131.3,0
2364394.0,0.19,0.153,0.121,34.15,-57.42,0
2364399.0,-0.313,-0.271,-0.264,-33.49,130.17,0
2364404.0,0.25,0.201,0.232,30.52,-47.17,0
2364409.0,-0.193,-0.185,-0.168,-35.79,131.07,0
2364414.0,0.18,0.115,0.234,21.21,-37.63,0
2364419.0,-0.267,-0.297,-0.18,-42.67,123.99,0
2364424.0,0.128,0.263,0.126,55.69,-45.34,0
2364429.0,-0.224,-0.177,-0.228,-29.02,135.5,0
2364434.0,0.267,0.184,0.239,27.22,-48.16,0
2364439.0,-0.31,-0.319,-0.226,-39.71,126.03,0
2364444.0,0.176,0.282,0.222,44.92,-38.35,0
2364449.0,-0.212,-0.149,-0.175,-28.37,129.58,0
2364454.0,0.259,0.129,0.251,19.67,-45.98,0
2364459.0,-0.224,-0.355,-0.147,-52.92,123.2,0
2364464.0,0.164,0.191,0.162,39.7,-45.27,0
2364469.0,-0.143,-0.122,-0.137,-31.72,133.84,0
2364474.0,0.154,0.208,0.22,37.79,-35.05,0
2364479.0,-0.234,-0.343,-0.245,-45.34,136.33,0
2364484.0,0.259,0.177,0.217,27.6,-50.06,0
2364489.0,-0.167,-0.213,-0.128,-45.46,127.42,0
2364494.0,0.204,0.203,0.212,34.59,-43.89,0
2364499.0,-0.203,-0.347,-0.116,-56.11,119.7,0
2364504.0,0.089,0.232,0.16,51.72,-29.24,0
2364509.0,-0.172,-0.125,-0.183,-26.47,136.79,0
2364514.0,0.231,0.277,0.169,44.12,-53.72,0
2364519.0,-0.179,-0.415,-0.168,-59.36,133.27,0
2364524.0,0.257,0.261,0.208,38.27,-51.07,0
2364529.0,-0.126,-0.237,-0.065,-59.1,117.4,0
2364534.0,0.295,0.34,0.272,40.22,-47.33,0
2364539.0,-0.188,-0.381,-0.161,-56.95,130.55,0
2364544.0,0.214,0.225,0.234,35.34,-42.44,0
2364549.0,-0.117,-0.273,-0.092,-61.52,128.2,0
2364554.0,0.154,0.366,0.246,51.59,-32.06,0
2364559.0,-0.119,-0.199,-0.077,-54.52,123.04,0
2364564.0,0.252,0.249,0.243,35.35,-46.01,0
2364569.0,-0.109,-0.256,-0.065,-63.59,120.87,0
2364574.0,0.252,0.28,0.294,35.86,-40.64,0
2364579.0,-0.081,-0.321,-0.058,-72.8,125.82,0
2364584.0,0.159,0.201,0.131,44.29,-50.49,0
2364589.0,-0.093,-0.254,-0.049,-67.63,117.7,0
2364594.0,0.279,0.337,0.275,40.77,-45.41,0
2364599.0,-0.057,-0.285,-0.085,-70.37,146.16,0
2364604.0,0.116,0.234,0.198,45.61,-30.3,0
2364609.0,-0.076,-0.273,-0.008,-74.41,95.95,0
2364614.0,0.262,0.275,0.248,37.32,-46.51,0
2364619.0,-0.09,-0.333,-0.068,-71.29,126.92,0
2364624.0,0.188,0.309,0.229,46.18,-39.3,0
2364629.0,-0.03,-0.261,0.026,-81.36,49.81,0
2364634.0,0.204,0.285,0.253,41.19,-38.91,0
2364639.0,-0.064,-0.288,-0.058,-73.28,132.34,0
2364644.0,0.226,0.263,0.275,36.49,-39.44,0
2364649.0,-0.078,-0.247,-0.006,-72.38,94.03,0
2364654.0,0.214,0.378,0.267,47.82,-38.65,0
2364659.0,0.061,-0.359,0.021,-79.88,-71.05,0
2364664.0,0.156,0.206,0.232,36.34,-34.04,0
2364669.0,-0.021,-0.201,-0.037,-78.19,150.47,0
2364674.0,0.178,0.39,0.198,55.68,-41.95,0
2364679.0,0.006,-0.328,-0.269,-50.68,-178.81,0
2364684.0,0.149,0.143,0.148,34.32,-45.29,0
2364689.0,-0.076,-0.163,-0.065,-58.46,130.77,0
2364694.0,0.161,0.39,0.229,54.3,-35.13,0
2364699.0,-0.011,-0.288,-0.01,-86.98,132.66,0
2364704.0,0.039,0.182,0.1,59.45,-21.39,0
2364709.0,-0.059,-0.118,-0.061,-54.28,135.73,0
2364714.0,0.149,0.27,0.186,48.57,-38.74,0
2364719.0,-0.009,-0.256,-0.334,-37.55,178.49,0
2364724.0,0.089,0.189,0.176,43.67,-26.86,0
2364729.0,0.025,-0.204,0.045,-75.91,-28.92,0
2364734.0,0.128,0.368,0.117,64.86,-47.6,0
2364739.0,0.056,-0.23,0.054,-71.29,-45.79,0
2364744.0,0.073,0.237,0.119,59.51,-31.4,0
2364749.0,-0.016,-0.355,-0.065,-79.26,166.28,0
2364754.0,0.159,0.239,0.117,50.51,-53.72,0
2364759.0,0.056,-0.347,-0.314,-47.42,-169.92,0
2364764.0,0.085,0.222,0.148,52.56,-29.8,0
2364769.0,0.013,-0.166,-0.401,-22.44,-178.17,0
2364774.0,0.118,0.313,0.042,68.17,-70.26,0
2364779.0,0.058,-0.256,-0.324,-37.93,-169.8,0
2364784.0,0.025,0.182,0.157,48.76,-8.94,0
2364789.0,0.044,-0.185,-0.348,-27.77,-172.81,0
2364794.0,-0.011,0.213,0.167,51.83,3.83,0
2364799.0,-0.454,-0.369,-0.314,-33.75,124.69,0
2364804.0,0.039,0.052,0.102,25.56,-20.93,0
2364809.0,-0.026,-0.371,-0.326,-48.61,175.53,0
2364814.0,0.08,0.162,0.109,50.19,-36.11,0
2364819.0,0.132,-0.364,-0.319,-46.51,-157.46,0
2364824.0,0.08,0.354,0.069,73.43,-49.27,0
2364829.0,0.07,-0.278,-0.305,-41.64,-167.02,0
2364834.0,0.001,0.182,0.074,67.97,-0.62,0
2364839.0,-0.488,-0.324,-0.408,-26.98,129.9,0
2364844.0,0.111,0.313,0.136,60.77,-39.25,0
2364849.0,0.161,-0.256,-0.336,-34.54,-154.36,0
2364854.0,0.161,0.122,-0.025,36.75,-98.7,0
2364859.0,-0.392,-0.336,-0.369,-31.92,133.31,0
2364864.0,0.279,0.237,0.196,34.82,-54.92,0
2364869.0,-0.33,-0.292,-0.233,-35.92,125.25,0
2364874.0,0.216,0.251,0.184,41.51,-49.67,0
2364879.0,-0.43,-0.345,-0.266,-34.29,121.78,0
2364884.0,0.185,0.316,0.066,58.08,-70.29,0
2364889.0,-0.318,-0.391,-0.302,-41.69,133.59,0
2364894.0,0.094,0.22,0.119,55.4,-38.36,0
2364899.0,-0.37,-0.288,-0.329,-30.15,131.6,0
2364904.0,0.168,0.251,0.069,54.08,-67.8,0
2364909.0,-0.416,-0.189,-0.355,-19.11,130.5,0
2364914.0,0.192,0.045,0.097,11.83,-63.13,0
2364919.0,-0.459,-0.285,-0.326,-26.86,125.42,0
2364924.0,0.211,0.325,0.15,51.44,-54.63,0
2364929.0,-0.275,-0.216,-0.211,-31.91,127.6,0
2364934.0,0.207,0.007,0.186,1.41,-48.01,0
2364939.0,-0.346,-0.316,-0.221,-37.6,122.54,0
2364944.0,0.221,0.354,0.15,52.95,-55.82,0
2364949.0,-0.21,-0.235,-0.257,-35.31,140.75,0
2364954.0,0.24,0.153,0.215,25.39,-48.2,0
2364959.0,-0.354,-0.415,-0.25,-43.76,125.23,0
2364964.0,0.247,0.301,0.126,47.34,-62.98,0
2364969.0,-0.291,-0.213,-0.262,-28.59,131.94,0
2364974.0,0.18,0.165,0.124,37.01,-55.54,0
2364979.0,-0.308,-0.417,-0.247,-46.54,128.76,0
2364984.0,0.204,0.203,0.208,34.9,-44.54,0
2364989.0,-0.284,-0.17,-0.243,-24.51,130.49,0
2364994.0,0.178,0.232,0.119,47.29,-56.23,0
2364999.0,-0.231,-0.297,-0.211,-43.47,132.41,0
2365004.0,0.192,0.112,0.21,21.51,-42.49,0
2365009.0,-0.284,-0.13,-0.278,-18.05,134.42,0
2365014.0,0.247,0.103,0.205,17.71,-50.33,0
2365019.0,-0.318,-0.225,-0.216,-30.39,124.24,0
2365024.0,0.228,0.182,0.193,31.27,-49.75,0
2365029.0,-0.205,-0.261,-0.204,-42.07,134.88,0
2365034.0,0.264,0.191,0.253,27.6,-46.23,0
2365039.0,-0.277,-0.3,-0.207,-40.93,126.73,0
2365044.0,0.286,0.304,0.26,38.17,-47.67,0
2365049.0,-0.246,-0.187,-0.199,-30.58,129.05,0
2365054.0,0.235,0.127,0.184,22.97,-52.05,0
2365059.0,-0.263,-0.34,-0.199,-45.9,127.22,0
2365064.0,0.228,0.332,0.217,46.54,-46.43,0
2365069.0,-0.21,-0.201,-0.195,-35.13,132.84,0
2365074.0,0.257,0.155,0.22,24.68,-49.49,0
2365079.0,-0.33,-0.369,-0.233,-42.44,125.25,0
2365084.0,0.267,0.28,0.248,37.53,-47.03,0
2365089.0,-0.231,-0.177,-0.168,-31.81,126.03,0
2365094.0,0.211,0.251,0.16,43.45,-52.94,0
2365099.0,-0.176,-0.326,-0.216,-49.43,140.79,0
2365104.0,0.13,0.177,0.174,39.14,-36.77,0
2365109.0,-0.172,-0.154,-0.173,-32.21,135.25,0
2365114.0,0.214,0.162,0.196,29.28,-47.56,0
2365119.0,-0.224,-0.319,-0.247,-43.67,137.8,0
2365124.0,0.183,0.306,0.191,49.2,-43.76,0
2365129.0,-0.191,-0.17,-0.171,-33.64,131.83,0
2365134.0,0.274,0.172,0.289,23.38,-43.45,0
2365139.0,-0.193,-0.328,-0.087,-57.18,114.23,0
2365144.0,0.164,0.184,0.148,39.86,-47.92,0
2365149.0,-0.097,-0.218,-0.144,-51.41,146.0,0
2365154.0,0.235,0.234,0.265,33.46,-41.61,0
2365159.0,-0.287,-0.309,-0.243,-39.48,130.25,0
2365164.0,0.207,0.265,0.179,44.16,-49.13,0
2365169.0,-0.128,-0.201,-0.073,-53.78,119.45,0
2365174.0,0.219,0.258,0.232,39.04,-43.37,0
2365179.0,-0.186,-0.383,-0.204,-54.23,137.68,0
2365184.0,0.173,0.241,0.153,46.3,-48.63,0
2365189.0,-0.174,-0.125,-0.233,-23.23,143.25,0
2365194.0,0.223,0.253,0.181,41.38,-50.96,0
2365199.0,-0.157,-0.415,-0.14,-63.11,131.6,0
2365204.0,0.176,0.241,0.239,39.18,-36.34,0
2365209.0,-0.081,-0.249,-0.113,-60.86,144.56,0
2365214.0,0.185,0.318,0.258,45.06,-35.68,0
2365219.0,-0.128,-0.352,-0.14,-61.69,137.37,0
2365224.0,0.252,0.186,0.241,28.12,-46.29,0
2365229.0,-0.133,-0.324,-0.08,-64.36,120.89,0
2365234.0,0.192,0.325,0.205,49.15,-43.15,0
2365239.0,-0.071,-0.261,-0.061,-70.34,130.46,0
2365244.0,0.202,0.27,0.253,39.85,-38.58,0
2365249.0,-0.064,-0.297,-0.027,-76.87,112.97,0
2365254.0,0.216,0.285,0.234,41.78,-42.76,0
2365259.0,-0.066,-0.261,-0.075,-69.05,138.53,0
2365264.0,0.137,0.232,0.196,44.14,-35.06,0
2365269.0,-0.095,-0.216,-0.037,-64.75,111.09,0
2365274.0,0.161,0.364,0.162,57.84,-44.84,0
2365279.0,-0.04,-0.379,-0.269,-54.32,171.56,0
2365284.0,0.137,0.253,0.203,45.99,-34.09,0
2365289.0,-0.042,-0.283,-0.063,-74.99,146.11,0
2365294.0,0.176,0.371,0.212,53.38,-39.58,0
2365299.0,0.008,-0.24,0.038,-80.89,-11.99,0
2365304.0,0.171,0.275,0.179,48.04,-43.68,0
2365309.0,-0.057,-0.237,-0.025,-75.41,113.52,0
2365314.0,0.247,0.368,0.208,48.76,-50.0,0
2365319.0,-0.014,-0.319,-0.357,-41.7,177.83,0
2365324.0,0.149,0.253,0.272,39.23,-28.73,0
2365329.0,-0.066,-0.182,0.038,-67.32,60.43,0
2365334.0,0.164,0.392,0.217,55.28,-36.99,0
2365339.0,0.106,-0.233,0.035,-64.32,-71.66,0
2365344.0,0.051,0.177,0.217,38.41,-13.24,0
2365349.0,-0.066,-0.221,-0.12,-58.07,151.19,0
2365354.0,0.214,0.407,0.176,55.71,-50.48,0
2365359.0,-0.418,-0.371,-0.276,-36.55,123.43,0
2365364.0,0.113,0.251,0.126,55.96,-41.93,0
2365369.0,-0.011,-0.216,-0.037,-79.94,163.04,0
2365374.0,0.135,0.337,0.138,60.21,-44.31,0
2365379.0,0.073,-0.199,-0.314,-31.67,-166.99,0
2365384.0,0.001,0.189,0.136,54.29,-0.34,0
2365389.0,-0.028,-0.259,-0.274,-43.26,174.17,0
2365394.0,0.135,0.261,0.15,52.25,-41.94,0
2365399.0,-0.349,-0.336,-0.262,-37.58,126.88,0
2365404.0,0.02,0.105,0.176,30.6,-6.45,0
2365409.0,-0.016,-0.228,-0.264,-40.73,176.54,0
2365414.0,0.058,0.371,0.071,76.08,-39.33,0
2365419.0,0.111,-0.345,-0.334,-44.47,-161.6,0
2365424.0,0.037,0.347,0.2,59.57,-10.38,0
2365429.0,0.058,-0.374,-0.381,-44.09,-171.32,0
2365434.0,0.061,0.22,0.085,64.52,-35.36,0
2365439.0,-0.5,-0.357,-0.341,-30.56,124.29,0
2365444.0,0.111,0.337,0.081,67.87,-53.97,0
2365449.0,0.058,-0.359,-0.334,-46.71,-170.09,0
2365454.0,-0.002,0.218,0.088,68.0,1.04,0
2365459.0,0.123,-0.336,-0.274,-48.2,-155.81,0
2365464.0,0.2,0.292,0.157,48.95,-51.75,0
2365469.0,-0.43,-0.386,-0.331,-35.4,127.59,0
2365474.0,0.173,0.208,0.083,47.28,-64.37,0
2365479.0,-0.416,-0.359,-0.341,-33.77,129.33,0
2365484.0,0.209,0.385,0.05,60.84,-76.67,0
2365489.0,-0.399,-0.395,-0.3,-38.38,126.94,0
2365494.0,0.226,0.136,0.095,29.06,-67.18,0
2365499.0,-0.545,-0.312,-0.415,-24.46,127.28,0
2365504.0,0.166,0.309,0.071,59.66,-66.81,0
2365509.0,-0.385,-0.29,-0.336,-29.59,131.13,0
2365514.0,0.125,0.115,0.057,39.8,-65.64,0
2365519.0,-0.382,-0.359,-0.319,-35.82,129.86,0
2365524.0,0.238,0.344,0.22,46.78,-47.29,0
2365529.0,-0.32,-0.324,-0.211,-40.15,123.45,0
2365534.0,0.25,0.16,0.16,28.37,-57.41,0
2365539.0,-0.361,-0.326,-0.3,-34.79,129.75,0
2365544.0,0.219,0.261,0.145,44.79,-56.39,0
2365549.0,-0.334,-0.216,-0.324,-24.87,134.09,0
2365554.0,0.216,0.17,0.222,28.7,-44.26,0
2365559.0,-0.416,-0.343,-0.271,-34.62,123.12,0
2365564.0,0.192,0.232,0.109,46.34,-60.37,0
2365569.0,-0.337,-0.24,-0.317,-27.41,133.24,0
2365574.0,0.171,0.218,0.133,45.11,-52.02,0
2365579.0,-0.32,-0.264,-0.269,-32.25,130.04,0
2365584.0,0.168,0.172,0.076,42.97,-65.74,0
2365589.0,-0.241,-0.23,-0.302,-30.76,141.44,0
2365594.0,0.161,0.105,0.167,24.35,-44.01,0
2365599.0,-0.409,-0.261,-0.307,-27.07,126.93,0
2365604.0,0.24,0.28,0.167,43.73,-55.21,0
2365609.0,-0.298,-0.211,-0.197,-30.54,123.43,0
2365614.0,0.221,0.057,0.174,11.48,-51.78,0
2365619.0,-0.344,-0.24,-0.295,-27.87,130.64,0
2365624.0,0.154,0.275,0.184,48.93,-39.99,0
2365629.0,-0.236,-0.201,-0.247,-30.5,136.31,0
2365634.0,0.255,0.052,0.174,9.63,-55.64,0
2365639.0,-0.349,-0.367,-0.209,-42.04,120.93,0
2365644.0,0.358,0.328,0.27,36.19,-52.96,0
2365649.0,-0.258,-0.242,-0.166,-38.3,122.77,0
2365654.0,0.185,0.184,0.227,32.16,-39.24,0
2365659.0,-0.229,-0.383,-0.216,-50.6,133.35,0
2365664.0,0.25,0.258,0.186,39.67,-53.32,0
2365669.0,-0.267,-0.17,-0.243,-25.26,132.21,0
2365674.0,0.257,0.107,0.191,18.55,-53.4,0
2365679.0,-0.294,-0.333,-0.216,-42.41,126.36,0
2365684.0,0.245,0.277,0.236,39.18,-46.04,0
2365689.0,-0.239,-0.199,-0.185,-33.39,127.8,0
2365694.0,0.219,0.179,0.186,31.98,-49.61,0
2365699.0,-0.287,-0.343,-0.266,-41.21,132.93,0
2365704.0,0.135,0.218,0.126,49.67,-46.91,0
2365709.0,-0.236,-0.103,-0.221,-17.71,133.09,0
2365714.0,0.178,0.136,0.179,28.35,-44.86,0
2365719.0,-0.227,-0.324,-0.195,-47.28,130.66,0
2365724.0,0.185,0.189,0.243,31.69,-37.25,0
2365729.0,-0.239,-0.182,-0.178,-31.48,126.7,0
2365734.0,0.137,0.232,0.129,50.96,-46.87,0
2365739.0,-0.191,-0.261,-0.223,-41.65,139.51,0
2365744.0,0.099,0.119,0.169,31.34,-30.31,0
2365749.0,-0.236,-0.223,-0.252,-32.84,136.86,0
2365754.0,0.252,0.22,0.188,34.94,-53.23,0
2365759.0,-0.251,-0.235,-0.13,-39.77,117.42,0
2365764.0,0.159,0.182,0.191,36.19,-39.77,0
2365769.0,-0.097,-0.245,-0.144,-54.54,146.0,0
2365774.0,0.29,0.239,0.272,30.99,-46.86,0
2365779.0,-0.169,-0.302,-0.039,-60.1,102.99,0
2365784.0,0.132,0.265,0.196,48.33,-34.11,0
2365789.0,-0.117,-0.166,-0.154,-40.61,142.88,0
2365794.0,0.223,0.158,0.191,28.22,-49.51,0
2365799.0,-0.179,-0.333,-0.135,-56.09,127.02,0
2365804.0,0.188,0.294,0.227,44.99,-39.6,0
2365809.0,-0.15,-0.139,-0.106,-37.14,125.26,0
2365814.0,0.267,0.311,0.287,38.46,-42.93,0
2365819.0,-0.227,-0.467,-0.159,-59.36,125.01,0
2365824.0,0.211,0.297,0.21,44.86,-45.21,0
2365829.0,-0.128,-0.254,-0.099,-57.46,127.58,0
2365834.0,0.264,0.318,0.287,39.22,-42.67,0
2365839.0,-0.069,-0.338,-0.123,-67.39,150.8,0
2365844.0,0.197,0.165,0.303,24.5,-33.02,0
2365849.0,-0.076,-0.089,-0.049,-44.63,122.66,0
2365854.0,0.19,0.196,0.172,37.44,-47.89,0
2365859.0,-0.119,-0.3,-0.096,-62.93,129.06,0
2365864.0,0.161,0.196,0.234,34.6,-34.57,0
2365869.0,-0.102,-0.228,-0.061,-62.46,120.67,0
2365874.0,0.243,0.395,0.205,51.17,-49.78,0
2365879.0,-0.071,-0.431,-0.056,-78.17,128.15,0
2365884.0,0.164,0.237,0.126,48.88,-52.36,0
2365889.0,-0.085,-0.235,-0.092,-61.93,137.04,0
2365894.0,0.192,0.366,0.284,46.84,-34.09,0
