time_ms,accel_x,accel_y,accel_z,pitch,roll,sync
295780.0,0.011,0.018,0.036,25.01,-16.18,0
295785.0,-0.018,0.022,-0.05,22.9,159.96,0
295790.0,0.003,0.006,0.0,59.22,-83.2,0
295795.0,0.011,-0.009,-0.004,-37.32,-112.62,0
295800.0,0.013,0.027,0.017,51.71,-37.0,0
295805.0,0.02,0.003,0.012,7.89,-58.4,0
295810.0,-0.011,-0.006,0.022,-14.4,26.65,0
295815.0,0.015,-0.006,-0.002,-22.2,-97.41,0
295820.0,-0.001,0.003,-0.004,35.32,161.88,0
295825.0,0.001,0.02,0.01,63.42,-5.48,0
295830.0,0.008,-0.028,-0.021,-50.87,-158.95,0
295835.0,-0.001,0.018,-0.004,75.33,161.88,0
295840.0,0.013,0.025,0.003,61.95,-77.8,0
295845.0,0.034,-0.037,-0.019,-43.64,-118.54,0
295850.0,0.015,0.003,0.027,6.06,-29.82,0
295855.0,0.003,0.018,0.02,41.64,-9.73,0
295860.0,0.015,-0.006,-0.014,-16.91,-132.35,0
295865.0,-0.03,-0.006,-0.026,-9.0,130.69,0
295870.0,0.003,0.02,0.017,48.89,-11.05,0
295875.0,0.008,0.008,-0.045,9.98,-169.77,0
295880.0,0.008,-0.009,-0.004,-43.25,-118.33,0
295885.0,-0.028,0.013,-0.002,24.77,94.11,0
295890.0,0.006,0.015,0.01,52.94,-29.94,0
295895.0,-0.016,0.013,0.015,30.72,46.94,0
295900.0,-0.016,0.01,-0.047,11.8,161.59,0
295905.0,0.001,0.02,0.008,69.12,-7.2,0
295910.0,0.013,0.003,0.02,7.95,-33.47,0
295915.0,0.011,0.02,0.015,47.84,-35.51,0
295920.0,-0.023,0.018,0.039,21.4,30.7,0
295925.0,0.025,0.003,-0.014,6.54,-119.29,0
295930.0,-0.052,0.006,-0.028,5.49,118.72,0
295935.0,0.018,0.01,-0.012,26.29,-123.15,0
295940.0,-0.023,0.006,0.01,12.74,66.54,0
295945.0,0.003,0.006,0.02,15.94,-9.73,0
295950.0,0.006,0.001,-0.009,4.64,-147.95,0
295955.0,-0.016,0.001,-0.014,2.38,131.47,0
295960.0,0.013,-0.03,0.003,-66.38,-77.8,0
295965.0,0.018,-0.021,0.0,-49.39,-88.71,0
295970.0,-0.011,0.003,-0.057,3.22,169.08,0
295975.0,0.008,0.01,-0.026,21.04,-162.58,0
295980.0,-0.009,0.003,0.0,20.77,87.35,0
295985.0,0.001,-0.002,-0.004,-18.65,-167.69,0
295990.0,0.001,0.034,0.015,66.73,-3.71,0
295995.0,-0.025,-0.004,0.024,-6.35,46.19,0
296000.0,-0.009,0.008,-0.021,19.44,157.83,0
296005.0,-0.04,0.008,0.015,10.76,69.62,0
296010.0,0.008,-0.002,-0.007,-8.14,-129.8,0
296015.0,0.006,-0.006,-0.031,-11.4,-169.41,0
296020.0,0.011,0.022,-0.002,64.45,-100.72,0
296025.0,-0.021,0.008,-0.043,9.65,154.25,0
296030.0,-0.006,0.027,0.005,73.42,50.19,0
296035.0,-0.013,-0.002,-0.028,-2.77,154.67,0
296040.0,-0.001,-0.021,-0.028,-36.08,177.1,0
296045.0,-0.013,0.001,0.027,1.68,26.63,0
296050.0,-0.001,0.001,0.022,2.29,3.74,0
296055.0,0.011,0.025,-0.009,60.62,-131.06,0
296060.0,0.003,0.015,-0.014,46.7,-166.5,0
296065.0,0.006,-0.016,0.027,-30.15,-12.13,0
296070.0,-0.001,0.006,-0.012,25.92,172.92,0
296075.0,0.023,0.015,0.0,34.11,-88.98,0
296080.0,-0.004,0.01,0.003,65.6,53.89,0
296085.0,0.011,0.02,0.005,59.62,-63.78,0
296090.0,-0.013,0.027,-0.004,62.6,108.13,0
296095.0,-0.009,0.008,-0.045,9.96,169.18,0
296100.0,0.015,0.001,-0.024,1.79,-146.94,0
296105.0,0.001,0.032,-0.004,82.01,-167.69,0
296110.0,0.003,0.022,-0.004,76.17,-142.63,0
296115.0,0.006,-0.023,-0.028,-38.58,-168.53,0
296120.0,-0.025,-0.004,-0.012,-7.98,114.51,0
296125.0,0.023,0.02,-0.014,37.1,-121.82,0
296130.0,-0.009,0.01,0.015,31.45,30.27,0
296135.0,0.006,0.02,-0.002,73.11,-109.14,0
296140.0,0.044,0.018,0.0,21.82,-89.48,0
296145.0,0.011,0.01,-0.038,14.88,-164.47,0
296150.0,0.008,0.018,0.015,46.29,-28.87,0
296155.0,0.008,0.01,-0.004,48.51,-118.33,0
296160.0,0.032,0.003,-0.002,5.81,-93.56,0
296165.0,-0.013,0.02,0.015,45.13,42.24,0
296170.0,-0.021,0.01,-0.014,22.79,124.15,0
296175.0,-0.004,0.015,0.01,54.97,21.01,0
296180.0,-0.018,0.015,0.0,39.95,88.74,0
296185.0,0.011,0.008,0.01,29.06,-46.56,0
296190.0,-0.006,0.032,0.01,69.82,31.96,0
296195.0,0.003,-0.04,0.02,-63.52,-9.73,0
296200.0,-0.009,-0.016,-0.036,-23.49,166.36,0
296205.0,0.02,0.022,0.041,26.11,-26.07,0
296210.0,-0.009,0.008,0.015,25.24,30.27,0
296215.0,-0.004,0.008,0.005,51.34,36.44,0
296220.0,-0.006,0.034,-0.009,72.13,145.85,0
296225.0,-0.011,0.018,0.008,52.83,55.45,0
296230.0,-0.009,-0.037,-0.012,-68.92,143.32,0
296235.0,-0.009,0.022,-0.004,66.67,116.98,0
296240.0,0.037,0.008,0.015,11.47,-68.18,0
296245.0,-0.006,0.015,0.017,39.86,19.94,0
296250.0,-0.009,-0.016,-0.019,-37.58,155.32,0
296255.0,0.039,-0.004,-0.019,-5.14,-115.53,0
296260.0,0.008,-0.002,-0.002,-10.25,-103.76,0
296265.0,0.008,0.02,0.012,53.53,-33.35,0
296270.0,0.013,-0.011,-0.007,-37.23,-117.68,0
296275.0,-0.011,0.027,0.027,43.26,22.39,0
296280.0,0.006,-0.011,-0.019,-29.49,-162.97,0
296285.0,0.015,0.006,-0.038,7.89,-157.99,0
296290.0,0.008,-0.023,0.06,-20.77,-7.69,0
296295.0,0.034,0.001,0.008,1.42,-77.6,0
296300.0,0.003,-0.002,-0.002,-21.24,-120.75,0
296305.0,0.018,0.02,0.017,39.08,-45.92,0
296310.0,0.02,-0.023,-0.036,-29.47,-150.48,0
296315.0,-0.009,-0.002,0.036,-2.33,13.35,0
296320.0,0.001,0.015,0.008,63.37,-7.2,0
296325.0,0.006,-0.03,-0.016,-60.18,-160.65,0
296330.0,-0.004,-0.011,-0.019,-30.09,168.46,0
296335.0,0.001,0.02,-0.052,20.96,-178.95,0
296340.0,0.023,-0.006,0.034,-8.8,-33.56,0
296345.0,-0.011,-0.002,0.01,-5.83,47.83,0
296350.0,-0.001,0.013,0.036,19.47,2.27,0
296355.0,0.011,0.03,0.024,48.15,-23.4,0
296360.0,-0.011,0.001,-0.033,1.44,161.61,0
296365.0,0.027,0.008,-0.016,14.21,-120.94,0
296370.0,0.013,0.001,0.0,3.88,-88.23,0
296375.0,0.018,-0.002,-0.045,-1.79,-158.55,0
296380.0,0.02,0.01,-0.009,25.31,-114.53,0
296385.0,0.025,0.01,-0.026,16.21,-136.17,0
296390.0,-0.001,0.008,0.008,46.25,10.73,0
296395.0,-0.004,-0.016,-0.024,-33.66,170.76,0
296400.0,-0.001,0.006,-0.002,66.55,144.23,0
296405.0,0.003,0.022,0.0,81.44,-83.2,0
296410.0,-0.025,0.022,0.015,37.37,59.81,0
296415.0,0.013,0.008,-0.009,26.95,-125.37,0
296420.0,0.013,-0.042,-0.019,-61.65,-145.42,0
296425.0,0.025,0.02,-0.055,18.44,-155.51,0
296430.0,0.025,-0.004,0.008,-8.54,-73.06,0
296435.0,-0.009,-0.023,0.027,-39.39,17.87,0
296440.0,0.023,0.013,-0.014,25.88,-121.82,0
296445.0,-0.006,-0.023,-0.002,-74.18,107.76,0
296450.0,0.025,-0.011,0.022,-18.48,-48.61,0
296455.0,-0.013,0.032,-0.004,66.21,108.13,0
296460.0,0.011,-0.004,-0.016,-11.36,-147.22,0
296465.0,-0.009,-0.002,-0.002,-9.73,103.03,0
296470.0,0.008,-0.002,0.027,-3.11,-16.93,0
296475.0,-0.006,-0.006,0.022,-15.45,15.83,0
296480.0,0.008,-0.011,-0.016,-31.26,-153.55,0
296485.0,0.003,-0.023,0.0,-81.67,-83.2,0
296490.0,0.006,-0.016,-0.014,-46.44,-157.64,0
296495.0,-0.016,-0.013,-0.009,-36.43,120.15,0
296500.0,0.011,0.03,-0.016,56.69,-147.22,0
296505.0,0.001,0.006,0.005,47.05,-10.46,0
296510.0,0.025,0.027,0.02,40.68,-51.86,0
296515.0,0.02,0.027,0.024,40.76,-39.56,0
296520.0,0.018,-0.002,-0.007,-4.57,-110.95,0
296525.0,0.018,0.018,-0.026,29.32,-145.66,0
296530.0,0.003,0.008,0.027,16.65,-7.15,0
296535.0,0.018,0.013,0.003,35.62,-81.04,0
296540.0,0.011,0.013,0.005,47.58,-63.78,0
296545.0,-0.016,0.006,0.02,12.7,38.94,0
296550.0,-0.011,-0.013,-0.019,-31.8,149.58,0
296555.0,-0.001,0.013,-0.019,34.34,175.62,0
296560.0,-0.004,0.032,-0.016,62.3,166.82,0
296565.0,0.006,0.013,-0.052,13.73,-173.73,0
296570.0,0.008,0.001,0.02,2.37,-22.6,0
296575.0,-0.006,-0.016,0.015,-44.75,22.86,0
296580.0,-0.023,-0.021,-0.024,-32.14,135.69,0
296585.0,-0.023,0.027,-0.016,43.97,125.44,0
296590.0,0.02,0.032,0.015,52.06,-53.72,0
296595.0,-0.016,-0.025,-0.036,-33.22,156.01,0
296600.0,0.013,0.015,0.01,43.03,-52.34,0
296605.0,0.018,0.015,-0.012,35.77,-123.15,0
296610.0,-0.016,-0.009,0.01,-24.96,57.73,0
296615.0,0.015,-0.009,0.0,-29.58,-88.51,0
296620.0,0.001,0.003,-0.031,6.08,-178.21,0
296625.0,0.008,0.008,0.06,7.55,-7.69,0
296630.0,-0.018,-0.006,0.012,-15.99,55.79,0
296635.0,-0.049,0.008,0.012,9.01,75.92,0
296640.0,0.042,0.006,0.015,7.31,-70.48,0
296645.0,0.003,0.015,-0.002,75.65,-120.75,0
296650.0,0.008,-0.013,0.015,-38.66,-28.87,0
296655.0,0.02,-0.002,-0.026,-2.65,-142.21,0
296660.0,-0.001,0.032,0.017,61.72,4.79,0
296665.0,0.03,0.013,0.032,16.53,-43.28,0
296670.0,-0.013,-0.023,-0.009,-54.84,124.39,0
296675.0,0.013,-0.011,-0.009,-34.98,-125.37,0
296680.0,-0.023,0.006,-0.012,12.42,116.72,0
296685.0,0.003,0.01,0.027,21.21,-7.15,0
296690.0,0.013,-0.002,0.02,-3.7,-33.47,0
296695.0,0.013,-0.009,0.027,-16.33,-25.81,0
296700.0,0.001,0.027,0.017,57.73,-3.19,0
296705.0,-0.004,0.001,0.012,3.88,17.21,0
296710.0,-0.001,-0.002,0.015,-5.84,5.56,0
296715.0,0.013,0.003,-0.012,10.68,-131.83,0
296720.0,-0.018,0.015,0.022,28.13,39.66,0
296725.0,0.001,-0.018,0.012,-55.83,-4.43,0
296730.0,-0.023,0.015,0.0,33.55,89.0,0
296735.0,0.027,-0.018,-0.016,-29.87,-120.94,0
296740.0,0.006,0.01,-0.014,34.7,-157.64,0
296745.0,-0.004,-0.004,-0.083,-2.68,177.37,0
296750.0,0.003,-0.006,-0.014,-23.7,-166.5,0
296755.0,0.001,-0.016,-0.012,-53.83,-175.27,0
296760.0,0.015,-0.018,-0.036,-25.29,-156.66,0
296765.0,0.006,-0.002,-0.016,-5.0,-160.65,0
296770.0,0.034,0.008,0.003,13.12,-85.37,0
296775.0,-0.006,-0.002,-0.019,-4.39,161.64,0
296780.0,0.013,0.025,0.051,25.39,-14.31,0
296785.0,-0.025,-0.002,-0.024,-2.51,132.85,0
296790.0,0.013,0.018,0.055,17.21,-13.12,0
296795.0,0.008,-0.006,-0.012,-24.02,-144.87,0
296800.0,0.003,-0.002,-0.016,-5.19,-168.42,0
296805.0,0.018,0.001,0.005,2.72,-73.68,0
296810.0,-0.013,-0.006,0.02,-14.89,34.44,0
296815.0,0.011,0.001,-0.014,2.87,-142.97,0
296820.0,0.025,0.008,-0.016,15.14,-123.31,0
296825.0,0.023,0.03,-0.012,49.48,-117.21,0
296830.0,0.015,0.018,0.015,39.65,-46.06,0
296835.0,0.001,-0.009,-0.009,-43.31,-174.04,0
296840.0,-0.006,0.001,0.027,1.83,13.11,0
296845.0,-0.013,0.003,-0.038,4.65,160.52,0
296850.0,0.023,-0.002,0.02,-2.91,-49.02,0
296855.0,0.006,0.02,0.029,34.01,-11.16,0
296860.0,0.003,-0.011,0.027,-22.38,-7.15,0
296865.0,-0.013,0.008,-0.009,26.39,124.39,0
296870.0,-0.011,-0.045,-0.019,-64.01,149.58,0
296875.0,-0.004,0.01,0.017,30.74,12.58,0
296880.0,0.003,0.015,-0.019,38.66,-169.87,0
296885.0,-0.006,0.013,0.008,52.64,39.38,0
296890.0,0.006,-0.023,-0.002,-75.23,-109.14,0
296895.0,-0.013,0.02,0.0,56.19,88.29,0
296900.0,-0.006,-0.002,-0.009,-7.79,145.85,0
296905.0,-0.03,0.015,0.008,26.11,75.89,0
296910.0,0.018,-0.013,-0.024,-24.6,-143.04,0
296915.0,-0.013,0.003,-0.009,11.39,124.39,0
296920.0,-0.004,-0.013,-0.012,-47.9,161.68,0
296925.0,0.027,-0.002,-0.026,-2.31,-133.54,0
296930.0,0.018,0.006,0.003,17.53,-81.04,0
296935.0,0.011,-0.018,-0.024,-35.32,-155.89,0
296940.0,0.006,0.008,0.008,40.27,-37.15,0
296945.0,-0.001,0.03,0.0,87.12,74.46,0
296950.0,0.013,0.008,-0.021,18.01,-148.56,0
296955.0,-0.004,-0.006,-0.019,-18.23,168.46,0
296960.0,-0.023,0.027,-0.009,47.72,111.77,0
296965.0,-0.03,-0.002,-0.009,-2.75,106.92,0
296970.0,-0.009,-0.011,0.041,-14.8,11.84,0
296975.0,0.018,0.034,0.005,61.78,-73.68,0
296980.0,-0.009,0.003,-0.004,18.69,116.98,0
296985.0,0.003,0.018,-0.021,39.48,-170.99,0
296990.0,0.006,0.008,0.027,16.42,-12.13,0
296995.0,-0.001,0.013,0.02,33.24,4.2,0
297000.0,0.006,0.025,-0.033,36.44,-170.16,0
297005.0,0.003,-0.002,-0.033,-2.61,-174.22,0
297010.0,0.003,0.022,-0.007,71.36,-153.7,0
297015.0,0.015,0.034,0.003,65.64,-79.67,0
297020.0,0.023,0.003,-0.014,7.04,-121.82,0
297025.0,-0.011,-0.006,-0.016,-17.73,146.05,0
297030.0,0.006,-0.013,-0.016,-37.88,-160.65,0
297035.0,-0.011,-0.006,-0.012,-21.54,136.41,0
297040.0,0.011,0.001,-0.002,4.68,-100.72,0
297045.0,0.008,-0.03,-0.016,-58.86,-153.55,0
297050.0,-0.016,-0.009,-0.007,-26.83,113.23,0
297055.0,-0.004,0.01,-0.026,21.74,171.6,0
297060.0,-0.001,-0.018,0.0,-85.34,74.46,0
297065.0,-0.023,0.008,-0.012,17.39,116.72,0
297070.0,0.001,-0.018,0.0,-86.75,-67.35,0
297075.0,0.001,-0.004,-0.016,-13.42,-176.65,0
297080.0,0.011,0.032,-0.031,44.57,-161.08,0
297085.0,-0.013,0.003,0.005,12.82,68.85,0
297090.0,0.011,-0.013,-0.002,-51.52,-100.72,0
297095.0,-0.023,0.006,0.003,13.75,83.07,0
297100.0,-0.011,0.006,0.003,26.51,75.76,0
297105.0,0.013,-0.004,-0.014,-11.61,-137.21,0
297110.0,0.015,-0.002,-0.002,-5.6,-97.41,0
297115.0,-0.006,-0.002,-0.016,-4.95,159.17,0
297120.0,0.003,0.015,0.003,74.02,-50.18,0
297125.0,0.001,0.013,0.008,59.25,-7.2,0
297130.0,-0.011,0.022,-0.043,26.96,165.54,0
297135.0,0.011,0.01,0.012,32.76,-40.42,0
297140.0,-0.006,0.018,-0.019,41.75,161.64,0
297145.0,0.025,0.039,0.01,55.61,-68.17,0
297150.0,0.018,0.022,0.034,30.37,-27.58,0
297155.0,0.006,0.015,-0.052,16.16,-173.73,0
297160.0,0.023,0.022,0.022,35.5,-45.72,0
297165.0,-0.009,0.008,-0.047,9.48,169.71,0
297170.0,0.023,0.008,-0.024,13.9,-136.29,0
297175.0,0.018,-0.006,0.02,-13.44,-42.18,0
297180.0,0.032,0.015,-0.009,24.55,-105.96,0
297185.0,-0.03,0.01,-0.026,14.72,130.69,0
297190.0,0.027,-0.002,-0.038,-1.86,-144.25,0
297195.0,-0.023,0.01,0.017,20.03,53.26,0
297200.0,-0.006,-0.023,-0.028,-38.49,167.61,0
297205.0,0.008,0.006,-0.021,14.04,-158.95,0
297210.0,0.025,0.008,0.024,13.03,-45.65,0
297215.0,0.018,-0.023,0.041,-27.26,-23.32,0
297220.0,0.011,-0.009,0.027,-16.84,-21.51,0
297225.0,0.011,0.015,-0.038,21.18,-164.47,0
297230.0,0.003,-0.025,-0.016,-56.74,-168.42,0
297235.0,0.003,-0.011,0.012,-40.88,-15.16,0
297240.0,-0.009,-0.002,-0.019,-4.2,155.32,0
297245.0,0.015,0.008,-0.007,25.69,-113.88,0
297250.0,-0.006,0.003,0.003,25.62,65.83,0
297255.0,-0.009,0.034,0.02,58.15,23.79,0
297260.0,0.006,0.006,-0.009,27.62,-147.95,0
297265.0,-0.009,0.003,0.029,6.15,16.48,0
297270.0,0.001,0.042,0.0,88.57,-67.35,0
297275.0,0.008,0.006,0.01,23.75,-39.21,0
297280.0,-0.011,0.01,-0.007,38.95,121.63,0
297285.0,-0.023,-0.018,0.003,-38.28,83.07,0
297290.0,-0.006,0.02,0.003,71.19,65.83,0
297295.0,-0.018,0.008,0.015,18.98,50.94,0
297300.0,-0.021,-0.011,-0.014,-24.03,124.15,0
297305.0,-0.004,-0.004,0.008,-24.72,26.8,0
297310.0,0.008,-0.004,-0.036,-6.13,-167.09,0
297315.0,-0.009,-0.047,-0.031,-55.83,164.33,0
297320.0,0.008,-0.023,0.015,-53.83,-28.87,0
297325.0,-0.018,-0.016,-0.028,-25.25,147.29,0
297330.0,0.001,-0.018,0.01,-61.26,-5.48,0
297335.0,0.001,-0.002,0.012,-6.97,-4.43,0
297340.0,-0.009,-0.023,-0.021,-45.28,157.83,0
297345.0,0.013,0.008,-0.004,30.56,-108.75,0
297350.0,-0.001,0.015,-0.04,20.71,177.96,0
297355.0,0.011,-0.002,0.005,-7.36,-63.78,0
297360.0,0.011,0.001,0.0,4.76,-87.83,0
297365.0,0.018,-0.009,-0.033,-13.04,-151.86,0
297370.0,0.018,0.03,0.0,59.1,-88.71,0
297375.0,0.008,0.032,0.017,59.31,-25.38,0
297380.0,0.013,0.025,-0.009,57.43,-125.37,0
297385.0,-0.018,0.027,-0.014,49.87,127.51,0
297390.0,-0.016,0.03,0.034,38.35,24.98,0
297395.0,0.006,-0.006,-0.014,-22.66,-157.64,0
297400.0,0.049,0.008,0.024,8.4,-63.51,0
297405.0,-0.004,-0.002,0.01,-8.08,21.01,0
297410.0,0.018,0.013,0.015,29.12,-50.19,0
297415.0,0.003,-0.004,-0.014,-15.23,-166.5,0
297420.0,0.018,0.013,-0.004,35.14,-103.91,0
297425.0,-0.006,-0.004,0.008,-21.73,39.38,0
297430.0,-0.006,-0.002,-0.014,-5.66,155.98,0
297435.0,0.018,0.032,-0.019,51.13,-136.63,0
297440.0,0.001,0.02,-0.036,29.42,-178.46,0
297445.0,0.008,0.008,0.012,28.56,-33.35,0
297450.0,0.008,-0.006,0.008,-29.54,-47.03,0
297455.0,-0.013,-0.033,-0.002,-67.45,98.46,0
297460.0,-0.004,-0.013,0.01,-51.61,21.01,0
297465.0,-0.001,0.006,-0.009,31.38,171.1,0
297470.0,0.013,0.03,0.046,31.84,-15.73,0
297475.0,0.003,-0.021,0.029,-35.18,-6.56,0
297480.0,0.001,0.046,-0.009,78.75,-174.04,0
297485.0,0.011,0.01,0.015,29.96,-35.51,0
297490.0,-0.009,0.027,-0.016,55.81,152.22,0
297495.0,0.023,0.022,-0.047,23.11,-154.64,0
297500.0,-0.004,0.027,-0.009,69.93,157.34,0
297505.0,-0.006,0.015,-0.007,58.87,137.45,0
297510.0,-0.011,-0.011,0.003,-44.31,75.76,0
297515.0,0.011,0.003,-0.002,16.97,-100.72,0
297520.0,0.006,0.013,-0.004,60.63,-127.37,0
297525.0,0.02,-0.028,-0.019,-45.37,-133.0,0
297530.0,0.003,-0.002,0.015,-5.72,-12.79,0
297535.0,0.006,0.008,0.012,30.58,-24.91,0
297540.0,0.013,0.003,0.024,6.77,-27.97,0
297545.0,0.025,-0.011,0.036,-14.14,-34.44,0
297550.0,-0.011,0.008,-0.002,35.76,100.26,0
297555.0,0.013,0.006,-0.012,18.09,-131.83,0
297560.0,0.03,-0.04,-0.024,-46.43,-128.41,0
297565.0,0.018,0.015,0.008,38.34,-66.83,0
297570.0,0.032,0.006,0.022,8.29,-55.62,0
297575.0,-0.018,-0.013,0.003,-36.23,81.27,0
297580.0,-0.011,-0.013,0.032,-21.99,19.26,0
297585.0,0.015,0.01,0.015,26.17,-46.06,0
297590.0,0.023,-0.002,-0.014,-3.28,-121.82,0
297595.0,0.023,0.025,-0.031,33.09,-143.78,0
297600.0,-0.013,-0.011,-0.012,-32.06,130.79,0
297605.0,0.006,0.034,-0.007,75.51,-139.73,0
297610.0,0.015,0.03,0.017,52.15,-41.76,0
297615.0,-0.004,0.039,-0.007,78.76,150.54,0
297620.0,0.006,0.03,-0.009,69.91,-147.95,0
297625.0,0.008,0.051,-0.007,78.3,-129.8,0
297630.0,-0.004,0.001,-0.007,6.43,150.54,0
297635.0,0.023,-0.013,-0.009,-29.03,-112.18,0
297640.0,0.008,0.003,-0.024,7.48,-160.93,0
297645.0,-0.009,-0.006,0.012,-22.69,34.87,0
297650.0,-0.03,-0.006,-0.012,-11.04,110.98,0
297655.0,0.023,-0.013,-0.019,-24.72,-129.8,0
297660.0,0.042,0.022,-0.004,28.16,-96.01,0
297665.0,-0.009,-0.03,-0.007,-70.07,128.2,0
297670.0,-0.006,0.018,0.015,47.75,22.86,0
297675.0,0.001,0.042,0.024,59.63,-2.25,0
297680.0,0.011,-0.025,0.012,-57.45,-40.42,0
297685.0,-0.009,-0.002,0.005,-8.57,58.96,0
297690.0,0.003,0.001,-0.016,3.01,-168.42,0
297695.0,-0.023,-0.013,0.034,-18.22,34.12,0
297700.0,-0.004,0.015,-0.038,21.81,174.23,0
297705.0,0.001,0.02,0.032,32.42,-1.74,0
297710.0,0.013,0.008,0.036,11.81,-19.6,0
297715.0,0.015,0.022,0.051,22.96,-16.82,0
297720.0,-0.03,0.01,0.005,18.86,80.24,0
297725.0,0.015,0.013,0.029,21.32,-27.75,0
297730.0,-0.021,0.025,-0.04,28.74,152.94,0
297735.0,0.006,0.001,-0.064,0.78,-174.89,0
297740.0,0.008,0.003,0.012,12.46,-33.35,0
297745.0,0.02,-0.009,-0.002,-23.29,-95.66,0
297750.0,0.001,-0.013,0.017,-38.12,-3.19,0
297755.0,-0.033,-0.018,-0.014,-27.29,113.21,0
297760.0,0.006,-0.016,0.005,-64.01,-47.92,0
297765.0,-0.011,0.001,-0.021,2.11,152.49,0
297770.0,0.008,-0.006,-0.021,-15.55,-158.95,0
297775.0,0.015,0.008,0.01,23.79,-56.93,0
297780.0,0.006,0.015,-0.024,32.17,-166.28,0
297785.0,0.006,0.001,-0.019,2.56,-162.97,0
297790.0,-0.004,-0.018,-0.019,-43.67,168.46,0
297795.0,-0.006,-0.009,-0.019,-23.76,161.64,0
297800.0,0.011,0.008,0.015,23.96,-35.51,0
297805.0,-0.018,0.01,-0.007,28.3,110.44,0
297810.0,-0.001,0.003,0.022,8.46,3.74,0
297815.0,0.023,-0.033,-0.009,-53.33,-112.18,0
297820.0,-0.013,0.013,0.017,30.54,38.0,0
297825.0,0.003,-0.009,-0.007,-48.99,-153.7,0
297830.0,0.013,-0.025,0.029,-38.62,-23.93,0
297835.0,-0.009,0.034,0.022,55.57,21.44,0
297840.0,-0.009,0.027,0.01,64.15,40.83,0
297845.0,-0.011,-0.011,-0.036,-16.61,162.77,0
297850.0,0.011,-0.006,0.012,-21.21,-40.42,0
297855.0,0.03,0.013,0.043,13.71,-34.32,0
297860.0,0.015,-0.013,-0.009,-37.06,-120.92,0
297865.0,0.008,-0.037,0.01,-71.02,-39.21,0
297870.0,-0.006,-0.016,0.022,-34.84,15.83,0
297875.0,-0.004,0.015,0.046,18.32,4.77,0
297880.0,0.001,0.02,0.034,30.56,-1.62,0
297885.0,-0.023,-0.009,0.012,-18.43,61.71,0
297890.0,0.006,0.003,-0.009,16.82,-147.95,0
297895.0,0.008,-0.013,-0.045,-16.4,-169.77,0
297900.0,-0.004,0.01,-0.012,40.62,161.68,0
297905.0,0.015,-0.016,0.003,-45.56,-79.67,0
297910.0,-0.013,0.042,-0.045,41.47,163.44,0
297915.0,-0.004,0.001,-0.012,4.12,161.68,0
297920.0,-0.009,0.018,0.043,21.69,11.21,0
297925.0,-0.016,0.01,0.024,19.81,32.99,0
297930.0,0.018,0.018,0.015,37.41,-50.19,0
297935.0,-0.009,0.022,-0.012,57.24,143.32,0
297940.0,0.027,-0.002,-0.007,-3.09,-103.96,0
297945.0,-0.009,-0.006,-0.012,-23.6,143.32,0
297950.0,0.008,-0.006,-0.002,-36.95,-103.76,0
297955.0,0.013,0.003,-0.014,9.76,-137.21,0
297960.0,0.013,-0.021,-0.026,-35.5,-153.5,0
297965.0,-0.016,-0.023,0.02,-42.53,38.94,0
297970.0,0.023,0.006,-0.007,13.55,-106.77,0
297975.0,-0.004,0.01,-0.002,67.56,117.5,0
297980.0,0.02,0.025,0.032,33.57,-32.54,0
297985.0,-0.013,-0.018,0.0,-53.72,88.29,0
297990.0,0.001,-0.028,-0.004,-80.84,-167.69,0
297995.0,0.013,0.013,0.017,30.88,-37.0,0
298000.0,0.003,0.01,0.008,51.59,-23.85,0
298005.0,0.003,0.003,-0.002,40.0,-120.75,0
298010.0,-0.018,-0.006,-0.002,-19.0,96.25,0
298015.0,-0.018,-0.016,-0.016,-32.99,131.96,0
298020.0,0.015,-0.006,0.015,-16.5,-46.06,0
298025.0,-0.016,-0.018,-0.024,-32.8,146.13,0
298030.0,-0.001,-0.004,-0.007,-29.42,168.04,0
298035.0,0.015,0.006,-0.019,13.17,-140.75,0
298040.0,0.037,0.01,-0.009,15.38,-103.98,0
298045.0,-0.004,-0.033,0.01,-71.87,21.01,0
298050.0,-0.004,0.025,-0.021,49.11,169.73,0
298055.0,0.027,0.042,-0.026,47.84,-133.54,0
298060.0,0.008,0.008,-0.007,37.26,-129.8,0
298065.0,-0.006,0.006,0.012,22.25,26.71,0
298070.0,-0.009,0.008,-0.031,14.18,164.33,0
298075.0,0.001,-0.023,-0.007,-73.46,-171.96,0
298080.0,-0.006,-0.009,-0.057,-8.62,173.77,0
298085.0,-0.009,0.025,-0.014,56.53,148.32,0
298090.0,-0.016,-0.004,-0.016,-9.76,135.99,0
298095.0,-0.001,-0.002,0.003,-25.76,27.21,0
298100.0,0.018,-0.002,-0.04,-1.97,-156.27,0
298105.0,-0.001,0.006,0.0,75.26,74.46,0
298110.0,-0.013,-0.009,-0.033,-13.68,157.96,0
298115.0,0.018,-0.018,-0.024,-31.81,-143.04,0
298120.0,-0.011,-0.002,-0.009,-6.04,129.8,0
298125.0,0.006,0.006,-0.004,38.09,-127.37,0
298130.0,0.011,0.03,0.0,70.4,-87.83,0
298135.0,0.008,0.003,-0.031,5.88,-165.16,0
298140.0,0.023,0.001,0.008,2.12,-71.38,0
298145.0,0.001,-0.016,0.034,-25.08,-1.62,0
298150.0,0.015,0.025,-0.028,37.62,-151.59,0
298155.0,0.006,-0.004,-0.004,-28.41,-127.37,0
298160.0,-0.004,0.049,0.02,67.77,11.08,0
298165.0,0.02,0.015,-0.012,33.3,-119.91,0
298170.0,0.018,0.008,0.012,20.46,-55.08,0
298175.0,-0.006,-0.002,0.034,-2.52,10.4,0
298180.0,0.001,0.015,-0.028,28.27,-178.06,0
298185.0,0.015,-0.006,0.02,-14.24,-38.08,0
298190.0,-0.009,0.03,0.003,72.98,72.04,0
298195.0,0.018,0.006,-0.007,16.63,-110.95,0
298200.0,-0.016,0.008,-0.012,22.37,126.21,0
298205.0,0.001,0.01,0.005,63.22,-10.46,0
298210.0,0.018,-0.006,0.01,-17.23,-60.62,0
298215.0,0.003,0.01,0.003,67.34,-50.18,0
298220.0,-0.001,0.013,0.008,59.01,10.73,0
298225.0,0.008,0.008,-0.002,43.88,-103.76,0
298230.0,0.006,-0.016,0.027,-30.15,-12.13,0
298235.0,0.001,0.01,-0.071,8.33,-179.23,0
298240.0,0.003,0.013,-0.019,34.0,-169.87,0
298245.0,-0.011,0.015,-0.024,30.39,154.93,0
298250.0,-0.023,-0.009,-0.009,-19.37,111.77,0
298255.0,-0.016,-0.013,-0.031,-21.32,152.78,0
298260.0,0.02,0.001,-0.004,2.44,-102.31,0
298265.0,-0.013,0.006,0.032,9.39,23.04,0
298270.0,-0.006,-0.009,-0.004,-48.8,125.19,0
298275.0,-0.004,-0.004,-0.014,-15.11,164.66,0
298280.0,0.006,0.02,0.01,60.11,-29.94,0
298285.0,-0.018,0.003,0.0,10.19,88.74,0
298290.0,0.013,-0.011,0.024,-21.92,-27.97,0
298295.0,0.023,0.02,0.032,27.35,-35.52,0
298300.0,-0.006,0.008,0.029,15.14,12.06,0
298305.0,-0.018,-0.009,0.01,-22.74,61.27,0
298310.0,-0.011,-0.03,0.008,-66.15,55.45,0
298315.0,0.003,0.008,0.032,14.27,-6.07,0
298320.0,-0.001,-0.006,-0.002,-68.7,144.23,0
298325.0,0.001,-0.013,0.027,-26.75,-2.05,0
298330.0,0.011,-0.004,-0.016,-11.36,-147.22,0
298335.0,0.018,0.027,0.034,35.42,-27.58,0
298340.0,-0.033,0.008,-0.021,11.73,123.0,0
298345.0,0.003,0.034,-0.016,64.1,-168.42,0
298350.0,-0.021,0.018,-0.002,40.45,95.53,0
298355.0,-0.013,-0.002,-0.014,-4.48,136.17,0
298360.0,0.003,0.001,-0.024,2.11,-171.9,0
298365.0,0.011,-0.004,0.008,-16.77,-54.25,0
298370.0,-0.035,0.018,-0.067,13.19,152.32,0
298375.0,0.003,0.02,-0.024,40.11,-171.9,0
298380.0,0.001,-0.002,-0.012,-7.44,-175.27,0
298385.0,-0.03,-0.021,-0.021,-29.29,125.03,0
298390.0,-0.001,0.013,-0.028,24.37,177.1,0
298395.0,0.011,-0.009,0.02,-21.39,-28.31,0
298400.0,0.003,0.01,0.041,14.23,-4.66,0
298405.0,0.02,-0.002,-0.024,-2.8,-139.49,0
298410.0,0.018,-0.002,-0.009,-4.35,-117.38,0
298415.0,0.023,0.006,0.046,6.33,-26.12,0
298420.0,0.013,0.006,0.008,20.71,-59.61,0
298425.0,-0.011,-0.023,0.01,-57.21,47.83,0
298430.0,-0.001,-0.004,-0.009,-22.83,171.1,0
298435.0,0.015,0.003,0.008,10.84,-63.67,0
298440.0,0.013,0.008,-0.002,31.64,-98.77,0
298445.0,-0.013,0.022,0.01,53.31,53.35,0
298450.0,-0.016,-0.013,0.024,-24.93,32.99,0
298455.0,-0.011,0.015,0.0,54.13,87.92,0
298460.0,-0.011,0.025,-0.026,41.37,156.99,0
298465.0,-0.004,0.015,-0.028,28.07,172.3,0
298470.0,0.02,-0.021,-0.019,-36.93,-133.0,0
298475.0,-0.006,-0.002,-0.009,-7.79,145.85,0
298480.0,0.003,0.006,-0.002,55.46,-120.75,0
298485.0,0.02,0.015,-0.024,26.21,-139.49,0
298490.0,-0.021,0.006,-0.009,14.11,114.02,0
298495.0,-0.013,0.01,0.022,22.12,31.42,0
298500.0,0.008,-0.004,-0.012,-15.45,-144.87,0
298505.0,0.027,0.003,-0.036,4.18,-142.46,0
298510.0,0.011,0.032,-0.004,70.37,-112.62,0
298515.0,-0.021,-0.016,-0.012,-33.92,119.33,0
298520.0,0.011,-0.002,0.039,-2.16,-15.22,0
298525.0,-0.004,-0.016,0.005,-67.9,36.44,0
298530.0,-0.006,-0.011,0.0,-60.65,86.33,0
298535.0,0.001,0.013,-0.012,47.9,-175.27,0
298540.0,0.011,-0.004,-0.012,-14.03,-137.68,0
298545.0,0.023,-0.004,0.029,-6.06,-37.69,0
298550.0,-0.001,0.003,-0.047,3.94,178.27,0
298555.0,0.018,-0.016,0.017,-32.78,-45.92,0
298560.0,0.006,0.006,0.01,26.21,-29.94,0
298565.0,0.02,0.022,-0.021,37.54,-136.44,0
298570.0,0.02,-0.011,-0.021,-20.81,-136.44,0
298575.0,0.013,0.025,-0.021,45.04,-148.56,0
298580.0,-0.004,-0.009,-0.024,-20.04,170.76,0
298585.0,-0.004,-0.009,-0.062,-7.99,176.46,0
298590.0,0.013,0.003,0.012,10.36,-46.26,0
298595.0,0.013,0.018,-0.004,52.26,-108.75,0
298600.0,-0.028,0.044,-0.031,46.71,137.89,0
298605.0,0.011,0.027,0.003,68.17,-75.14,0
298610.0,-0.011,-0.016,0.027,-28.78,22.39,0
298615.0,-0.001,0.027,-0.047,29.81,178.27,0
298620.0,0.015,-0.016,0.048,-17.41,-17.61,0
298625.0,-0.001,0.025,0.008,72.73,10.73,0
298630.0,0.018,-0.013,0.032,-20.45,-29.34,0
298635.0,0.027,0.008,0.029,11.42,-43.14,0
298640.0,0.001,0.013,-0.026,26.34,-177.89,0
298645.0,0.003,-0.013,-0.016,-38.93,-168.42,0
298650.0,0.006,0.003,0.005,22.91,-47.92,0
298655.0,-0.001,-0.006,-0.014,-24.18,174.13,0
298660.0,0.006,-0.002,0.003,-13.35,-64.07,0
298665.0,0.013,-0.018,-0.016,-41.23,-141.68,0
298670.0,-0.011,0.027,-0.004,66.46,111.73,0
298675.0,-0.009,0.006,-0.019,15.35,155.32,0
298680.0,0.015,0.01,0.02,22.82,-38.08,0
298685.0,-0.023,-0.016,0.01,-32.37,66.54,0
298690.0,-0.001,0.025,0.008,72.73,10.73,0
298695.0,-0.004,0.03,-0.028,46.0,172.3,0
298700.0,-0.011,0.006,-0.009,21.57,129.8,0
298705.0,-0.013,-0.011,-0.012,-32.06,130.79,0
298710.0,-0.009,-0.013,0.027,-25.65,17.87,0
298715.0,0.015,0.006,0.005,19.3,-71.3,0
298720.0,-0.009,0.001,0.022,2.13,21.44,0
298725.0,0.025,0.003,0.0,7.49,-89.08,0
298730.0,0.013,-0.006,0.017,-16.35,-37.0,0
298735.0,-0.016,-0.002,0.003,-5.4,79.97,0
298740.0,0.011,0.006,-0.002,27.86,-100.72,0
298745.0,-0.001,0.003,-0.028,6.58,177.1,0
298750.0,0.008,0.027,-0.026,45.03,-162.58,0
298755.0,-0.004,0.006,-0.026,12.2,171.6,0
298760.0,-0.001,0.008,-0.012,34.66,172.92,0
298765.0,0.013,0.01,-0.004,37.44,-108.75,0
298770.0,-0.009,-0.004,0.01,-16.52,40.83,0
298775.0,-0.009,-0.009,0.005,-40.85,58.96,0
298780.0,-0.001,-0.011,-0.038,-16.3,177.83,0
298785.0,0.006,-0.004,-0.019,-11.27,-162.97,0
298790.0,0.006,0.032,-0.031,45.67,-169.41,0
298795.0,0.025,-0.013,0.017,-24.04,-55.43,0
298800.0,0.011,-0.009,-0.014,-26.44,-142.97,0
298805.0,-0.009,-0.004,-0.04,-5.42,167.93,0
298810.0,-0.006,0.008,-0.004,46.62,125.19,0
298815.0,-0.018,0.02,0.003,47.42,81.27,0
298820.0,0.006,0.022,0.0,75.6,-86.02,0
298825.0,-0.006,-0.03,0.005,-75.0,50.19,0
298830.0,0.013,0.01,0.003,38.32,-77.8,0
298835.0,-0.013,0.015,-0.004,47.22,108.13,0
298840.0,0.003,-0.028,-0.012,-66.61,-163.84,0
298845.0,0.006,-0.011,-0.007,-51.29,-139.73,0
298850.0,-0.006,0.02,0.017,47.66,19.94,0
298855.0,0.013,0.003,-0.04,4.42,-162.21,0
298860.0,0.039,0.027,0.012,33.47,-72.51,0
298865.0,0.015,0.001,0.005,3.11,-71.3,0
298870.0,0.008,0.03,0.0,74.61,-87.19,0
298875.0,-0.025,0.008,-0.009,16.63,109.88,0
298880.0,0.02,-0.002,0.015,-3.48,-53.72,0
298885.0,-0.011,0.034,-0.002,71.98,100.26,0
298890.0,0.013,-0.023,0.0,-60.72,-88.23,0
298895.0,-0.021,0.018,-0.067,14.19,162.83,0
298900.0,-0.009,-0.018,0.01,-54.19,40.83,0
298905.0,0.011,0.003,0.003,16.71,-75.14,0
298910.0,-0.001,-0.023,0.01,-66.39,8.19,0
298915.0,-0.011,0.037,-0.012,66.53,136.41,0
298920.0,-0.006,-0.009,-0.059,-8.28,174.02,0
298925.0,0.018,0.037,-0.012,60.09,-123.15,0
298930.0,0.018,0.02,-0.038,25.58,-154.95,0
298935.0,-0.006,0.037,0.012,69.37,26.71,0
298940.0,0.018,0.003,-0.002,10.4,-96.42,0
298945.0,-0.004,-0.016,-0.028,-29.05,172.3,0
298950.0,0.001,-0.002,0.008,-11.22,-7.2,0
298955.0,0.001,0.001,0.005,9.45,-10.46,0
298960.0,-0.013,0.008,0.005,29.28,68.85,0
298965.0,-0.004,0.03,0.005,77.71,36.44,0
298970.0,0.015,0.003,-0.014,8.97,-132.35,0
298975.0,0.02,0.022,0.005,47.2,-75.54,0
298980.0,-0.001,0.015,-0.014,47.35,174.13,0
298985.0,0.011,0.006,-0.012,19.91,-137.68,0
298990.0,-0.018,-0.009,-0.002,-25.42,96.25,0
298995.0,-0.028,-0.016,0.032,-20.71,41.38,0
299000.0,0.001,-0.021,0.027,-37.69,-2.05,0
299005.0,-0.035,-0.021,-0.028,-24.67,129.02,0
299010.0,-0.016,-0.006,0.0,-21.74,88.55,0
299015.0,-0.021,0.003,0.027,5.54,37.6,0
299020.0,-0.018,0.003,0.0,10.19,88.74,0
299025.0,-0.011,-0.004,-0.002,-19.26,100.26,0
299030.0,0.018,0.018,0.036,23.58,-26.01,0
299035.0,0.034,-0.011,-0.05,-10.37,-145.35,0
299040.0,-0.021,-0.002,-0.012,-3.67,119.33,0
299045.0,0.003,-0.002,0.012,-6.75,-15.16,0
299050.0,-0.016,0.015,0.012,37.22,51.94,0
299055.0,0.001,0.001,-0.014,3.59,-176.08,0
299060.0,0.018,0.032,0.003,60.73,-81.04,0
299065.0,-0.009,-0.011,-0.04,-15.06,167.93,0
299070.0,0.027,-0.016,0.005,-29.75,-79.24,0
299075.0,-0.025,0.013,-0.009,25.46,109.88,0
299080.0,0.001,0.013,0.024,27.81,-2.25,0
299085.0,0.008,-0.002,-0.021,-3.83,-158.95,0
299090.0,0.013,0.006,0.034,8.87,-20.87,0
299095.0,-0.033,-0.03,0.015,-40.23,65.61,0
299100.0,0.003,0.003,-0.009,18.52,-159.94,0
299105.0,0.023,0.015,0.01,31.77,-66.09,0
299110.0,0.02,0.018,0.01,38.15,-63.62,0
299115.0,0.003,0.015,0.017,41.08,-11.05,0
299120.0,-0.021,0.008,0.034,11.48,31.26,0
299125.0,-0.009,-0.021,0.01,-57.47,40.83,0
299130.0,0.013,0.013,-0.016,31.64,-141.68,0
299135.0,-0.001,-0.002,0.0,-45.48,74.46,0
299140.0,-0.004,-0.028,-0.002,-81.19,117.5,0
299145.0,-0.018,0.025,-0.016,45.41,131.96,0
299150.0,0.003,0.032,0.012,68.17,-15.16,0
299155.0,-0.018,0.008,0.003,23.65,81.27,0
299160.0,-0.013,-0.018,0.022,-35.4,31.42,0
299165.0,0.006,0.001,0.012,3.68,-24.91,0
299170.0,0.03,0.02,-0.024,27.86,-128.41,0
299175.0,0.008,0.02,0.029,33.52,-15.61,0
299180.0,0.008,0.022,0.022,43.77,-20.35,0
299185.0,0.006,0.008,-0.031,14.46,-169.41,0
299190.0,0.015,-0.004,0.01,-12.07,-56.93,0
299195.0,-0.004,0.015,-0.024,32.58,170.76,0
299200.0,-0.009,-0.002,-0.002,-9.73,103.03,0
299205.0,-0.021,0.013,-0.004,31.4,102.03,0
299210.0,0.011,0.022,-0.052,22.81,-168.61,0
299215.0,-0.016,0.008,-0.009,23.8,120.15,0
299220.0,0.001,0.003,-0.014,13.16,-176.08,0
299225.0,0.027,0.003,0.0,6.84,-89.16,0
299230.0,0.013,0.003,-0.055,3.33,-166.69,0
299235.0,-0.018,0.001,-0.024,1.69,142.3,0
299240.0,-0.011,0.008,0.015,23.63,36.72,0
299245.0,-0.009,0.001,0.0,5.81,87.35,0
299250.0,0.023,-0.025,-0.024,-38.01,-136.29,0
299255.0,0.003,0.034,0.0,84.4,-83.2,0
299260.0,0.001,0.006,0.015,20.96,-3.71,0
299265.0,0.001,0.022,-0.014,58.03,-176.08,0
299270.0,-0.006,0.03,-0.05,30.5,172.89,0
299275.0,0.02,-0.004,0.003,-10.9,-82.09,0
299280.0,-0.025,-0.004,0.046,-4.26,28.94,0
299285.0,0.018,0.03,-0.012,54.45,-123.15,0
299290.0,-0.013,-0.018,-0.014,-43.35,136.17,0
299295.0,0.001,0.015,-0.004,73.58,-167.69,0
299300.0,0.027,0.001,-0.014,1.64,-117.1,0
299305.0,0.001,0.01,-0.047,12.41,-178.84,0
299310.0,0.015,0.02,0.005,51.08,-71.3,0
299315.0,0.006,-0.004,-0.009,-19.86,-147.95,0
299320.0,-0.035,-0.006,-0.038,-6.97,137.32,0
299325.0,-0.004,0.018,0.0,77.68,84.04,0
299330.0,-0.042,-0.011,-0.033,-11.69,128.17,0
299335.0,-0.013,0.003,-0.007,12.29,116.83,0
299340.0,0.008,0.018,0.043,21.73,-10.6,0
299345.0,-0.006,0.025,-0.026,42.94,166.5,0
299350.0,-0.006,-0.006,0.003,-42.74,65.83,0
299355.0,-0.009,0.022,-0.012,57.24,143.32,0
299360.0,0.006,0.022,-0.026,40.17,-167.51,0
299365.0,-0.004,-0.004,-0.036,-6.25,173.84,0
299370.0,0.003,0.018,0.027,33.21,-7.15,0
299375.0,0.006,0.015,0.036,22.52,-8.99,0
299380.0,0.011,0.01,0.022,23.24,-25.64,0
299385.0,-0.011,-0.016,0.015,-40.77,36.72,0
299390.0,-0.016,-0.011,-0.002,-34.86,97.19,0
299395.0,0.001,-0.002,-0.012,-7.44,-175.27,0
299400.0,0.001,0.032,-0.033,44.01,-178.34,0
299405.0,-0.004,-0.013,0.005,-64.44,36.44,0
299410.0,0.008,0.003,-0.028,6.33,-163.97,0
299415.0,0.02,0.006,-0.019,11.64,-133.0,0
299420.0,0.008,-0.018,-0.009,-56.13,-138.43,0
299425.0,-0.021,0.013,0.048,13.75,23.1,0
299430.0,0.003,-0.011,-0.028,-21.25,-173.25,0
299435.0,-0.004,0.006,0.012,23.63,17.21,0
299440.0,0.02,-0.011,-0.021,-20.81,-136.44,0
299445.0,0.015,0.006,-0.012,16.44,-127.06,0
299450.0,-0.004,0.022,0.02,48.38,11.08,0
299455.0,-0.023,0.008,-0.014,16.68,121.28,0
299460.0,-0.001,-0.013,-0.016,-39.4,174.98,0
299465.0,0.011,-0.013,-0.026,-25.72,-157.89,0
299470.0,0.015,0.02,-0.007,50.09,-113.88,0
299475.0,0.003,0.006,0.022,14.32,-8.68,0
299480.0,-0.018,0.015,0.012,34.71,55.79,0
299485.0,-0.023,0.01,-0.019,19.41,129.21,0
299490.0,0.023,0.003,-0.019,6.37,-129.8,0
299495.0,0.001,0.02,-0.028,35.25,-178.06,0
299500.0,-0.001,0.022,-0.016,53.78,174.98,0
299505.0,0.011,0.003,-0.016,9.55,-147.22,0
299510.0,-0.013,-0.021,0.0,-57.02,88.29,0
299515.0,-0.025,0.013,-0.038,15.73,146.2,0
299520.0,0.018,-0.006,-0.036,-9.03,-153.49,0
299525.0,-0.001,-0.025,-0.012,-65.39,172.92,0
299530.0,0.003,0.013,0.015,40.32,-12.79,0
299535.0,0.023,0.027,0.015,45.32,-56.73,0
299540.0,0.008,0.015,-0.004,58.75,-118.33,0
299545.0,0.003,0.015,0.015,45.19,-12.79,0
299550.0,0.02,-0.002,0.005,-4.18,-75.54,0
299555.0,-0.023,-0.016,0.0,-34.64,89.0,0
299560.0,0.015,-0.009,-0.024,-17.21,-146.94,0
299565.0,-0.016,0.015,0.003,43.53,79.97,0
299570.0,0.02,0.003,0.005,8.95,-75.54,0
299575.0,-0.004,0.02,0.017,48.73,12.58,0
299580.0,0.011,0.008,0.005,34.47,-63.78,0
299585.0,-0.021,0.008,-0.009,19.68,114.02,0
299590.0,-0.009,-0.006,-0.026,-12.99,161.62,0
299595.0,-0.013,-0.011,-0.021,-23.89,147.63,0
299600.0,0.003,0.003,-0.009,18.52,-159.94,0
299605.0,0.039,-0.006,0.01,-8.85,-75.74,0
299610.0,0.018,0.01,0.008,28.48,-66.83,0
299615.0,-0.025,0.032,0.012,48.58,64.01,0
299620.0,0.003,0.013,0.01,50.68,-18.57,0
299625.0,-0.016,0.01,0.02,22.58,38.94,0
299630.0,0.018,0.049,-0.04,47.92,-156.27,0
299635.0,-0.013,-0.03,-0.002,-65.86,98.46,0
299640.0,0.006,0.003,-0.007,20.21,-139.73,0
299645.0,-0.001,0.03,-0.009,72.58,171.1,0
299650.0,0.013,-0.002,-0.007,-5.93,-117.68,0
299655.0,0.008,0.003,-0.009,14.94,-138.43,0
299660.0,0.008,-0.013,-0.019,-33.41,-156.54,0
299665.0,-0.006,0.018,0.024,35.07,14.35,0
299670.0,-0.009,0.013,-0.045,15.64,169.18,0
299675.0,0.02,0.03,-0.004,55.19,-102.31,0
299680.0,-0.011,-0.011,-0.012,-34.78,136.41,0
299685.0,0.013,0.003,0.02,7.95,-33.47,0
299690.0,0.032,-0.002,0.034,-1.86,-43.41,0
299695.0,-0.009,0.018,-0.016,43.65,152.22,0
299700.0,0.018,0.003,-0.019,7.23,-136.63,0
299705.0,0.008,0.008,0.017,23.0,-25.38,0
299710.0,0.001,-0.002,0.0,-55.61,-67.35,0
299715.0,-0.028,-0.002,0.041,-1.75,34.05,0
299720.0,0.003,0.015,-0.002,75.65,-120.75,0
299725.0,0.032,0.025,0.008,36.98,-76.7,0
299730.0,0.008,0.015,0.022,33.07,-20.35,0
299735.0,0.003,-0.004,0.01,-20.38,-18.57,0
299740.0,0.001,0.018,0.008,66.57,-7.2,0
299745.0,0.013,0.013,0.027,23.4,-25.81,0
299750.0,0.003,-0.009,-0.007,-48.99,-153.7,0
299755.0,-0.035,0.003,0.024,4.39,55.15,0
299760.0,-0.001,0.003,-0.004,35.32,161.88,0
299765.0,0.013,0.037,0.01,66.07,-52.34,0
299770.0,0.008,-0.011,-0.019,-28.48,-156.54,0
299775.0,0.008,-0.002,0.003,-9.99,-71.05,0
299780.0,-0.006,0.01,-0.021,25.37,163.6,0
299785.0,0.006,0.015,-0.012,49.72,-153.59,0
299790.0,0.006,-0.006,0.022,-15.53,-14.67,0
299795.0,-0.004,0.001,0.027,1.86,8.15,0
299800.0,0.025,0.02,-0.002,38.73,-94.58,0
299805.0,-0.011,0.03,0.027,45.68,22.39,0
299810.0,-0.016,0.022,-0.014,46.76,131.47,0
299815.0,0.001,0.018,0.051,19.19,-1.08,0
299820.0,-0.023,0.015,-0.021,26.01,132.62,0
299825.0,0.008,-0.009,0.027,-17.29,-16.93,0
299830.0,0.008,0.034,0.041,39.38,-11.2,0
299835.0,-0.009,0.022,0.02,46.38,23.79,0
299840.0,-0.011,-0.006,-0.004,-28.0,111.73,0
299845.0,0.008,-0.004,0.017,-11.63,-25.38,0
299850.0,0.006,0.01,-0.012,38.98,-153.59,0
299855.0,-0.013,0.015,-0.057,14.58,166.78,0
299860.0,0.006,0.03,-0.014,62.98,-157.64,0
299865.0,0.018,-0.035,-0.05,-33.5,-160.44,0
299870.0,-0.001,0.027,0.029,43.02,2.82,0
299875.0,0.044,0.003,-0.002,4.24,-92.59,0
299880.0,0.008,0.027,0.0,73.33,-87.19,0
299885.0,0.013,-0.004,0.024,-8.08,-27.97,0
299890.0,-0.03,0.013,-0.024,18.56,127.97,0
299895.0,0.013,0.02,-0.021,38.94,-148.56,0
299900.0,0.013,0.008,-0.004,30.56,-108.75,0
299905.0,-0.016,-0.013,0.003,-40.05,79.97,0
299910.0,0.032,0.001,-0.009,1.51,-105.96,0
299915.0,0.003,0.001,-0.007,6.62,-153.7,0
299920.0,-0.006,0.013,-0.036,19.61,170.06,0
299925.0,0.034,0.025,-0.026,29.91,-126.95,0
299930.0,0.001,0.015,0.0,86.11,-67.35,0
299935.0,-0.016,-0.009,-0.014,-22.42,131.47,0
299940.0,0.003,-0.002,0.003,-19.16,-50.18,0
299945.0,0.001,0.02,-0.031,33.09,-178.21,0
299950.0,0.001,-0.004,0.046,-4.87,-1.2,0
299955.0,0.02,0.037,-0.007,60.02,-108.64,0
299960.0,0.003,0.001,-0.002,12.69,-120.75,0
299965.0,0.013,0.013,0.043,15.81,-16.55,0
299970.0,0.011,-0.006,0.005,-28.23,-63.78,0
299975.0,0.018,0.003,0.022,6.62,-38.91,0
299980.0,0.02,0.01,-0.004,26.93,-102.31,0
299985.0,0.013,0.013,-0.021,27.4,-148.56,0
299990.0,-0.004,0.013,0.036,19.39,6.02,0
299995.0,-0.025,0.01,0.017,18.84,55.94,0
300000.0,0.003,-0.006,-0.009,-32.83,-159.94,0
300005.0,-0.011,-0.002,-0.019,-3.99,149.58,0
300010.0,-0.004,-0.006,0.003,-53.05,53.89,0
300015.0,0.013,-0.013,0.003,-45.56,-77.8,0
300020.0,0.006,0.01,-0.047,12.33,-173.1,0
300025.0,0.013,-0.013,0.0,-46.2,-88.23,0
300030.0,0.02,-0.011,-0.007,-27.59,-108.64,0
300035.0,0.02,0.02,-0.007,43.34,-108.64,0
300040.0,0.008,0.013,0.0,57.61,-87.19,0
300045.0,0.003,0.006,-0.016,18.74,-168.42,0
300050.0,0.003,-0.006,0.008,-37.25,-23.85,0
300055.0,-0.004,-0.002,0.015,-5.68,14.54,0
300060.0,0.02,0.01,-0.04,13.07,-153.48,0
300065.0,0.025,-0.002,-0.043,-1.76,-149.75,0
300070.0,0.015,0.006,-0.024,11.4,-146.94,0
300075.0,0.013,0.001,-0.012,2.9,-131.83,0
300080.0,0.013,-0.018,-0.019,-38.74,-145.42,0
300085.0,0.008,0.006,0.012,20.94,-33.35,0
300090.0,0.001,-0.006,0.012,-26.94,-4.43,0
300095.0,0.001,0.01,0.01,46.21,-5.48,0
300100.0,0.008,0.008,-0.04,11.09,-168.58,0
300105.0,0.011,-0.018,-0.009,-52.6,-131.06,0
300110.0,-0.004,0.01,0.015,34.43,14.54,0
300115.0,0.006,0.025,0.005,72.68,-47.92,0
300120.0,-0.009,-0.004,0.048,-4.56,10.12,0
300125.0,0.015,-0.011,0.027,-19.8,-29.82,0
300130.0,-0.021,-0.009,-0.026,-14.72,141.55,0
300135.0,0.015,0.042,-0.016,61.67,-136.87,0
300140.0,-0.021,0.006,0.017,11.94,50.19,0
300145.0,0.015,0.001,0.015,2.36,-46.06,0
300150.0,-0.011,0.001,-0.04,1.2,164.72,0
300155.0,-0.009,-0.006,0.024,-13.72,19.5,0
300160.0,0.003,0.018,-0.026,34.0,-172.64,0
300165.0,-0.011,0.025,0.003,65.4,75.76,0
300170.0,0.006,0.001,0.015,3.17,-21.26,0
300175.0,-0.006,0.008,-0.016,24.73,159.17,0
300180.0,0.003,0.02,-0.004,74.59,-142.63,0
300185.0,-0.001,0.037,-0.019,62.92,175.62,0
300190.0,0.006,0.02,0.039,27.11,-8.44,0
300195.0,0.003,-0.016,-0.057,-15.53,-176.64,0
300200.0,0.003,-0.002,-0.031,-2.81,-173.77,0
300205.0,0.025,0.008,0.015,15.56,-59.33,0
300210.0,0.001,-0.006,0.008,-39.52,-7.2,0
300215.0,0.02,-0.004,0.046,-4.46,-23.67,0
300220.0,-0.013,0.01,-0.028,18.45,154.67,0
300225.0,-0.006,0.039,0.008,75.94,39.38,0
300230.0,0.015,-0.002,-0.014,-4.18,-132.35,0
300235.0,0.011,-0.018,-0.016,-43.21,-147.22,0
300240.0,0.025,0.018,-0.004,34.9,-100.0,0
300245.0,-0.004,-0.013,0.041,-18.09,5.32,0
300250.0,0.015,-0.006,-0.009,-19.44,-120.92,0
300255.0,0.015,0.022,-0.036,30.11,-156.66,0
300260.0,0.001,0.042,-0.019,65.69,-177.08,0
300265.0,0.011,-0.028,0.02,-51.43,-28.31,0
300270.0,-0.049,-0.059,-0.024,-47.18,115.52,0
300275.0,0.113,0.08,-0.045,33.19,-111.67,0
300280.0,-0.219,-0.066,-0.162,-13.63,126.52,0
300285.0,0.07,0.01,0.146,3.68,-25.67,0
300290.0,-0.021,0.183,-0.138,52.56,171.54,0
300295.0,-0.176,0.154,-0.323,22.73,151.37,0
300300.0,0.152,-0.286,0.326,-38.54,-24.97,0
300305.0,-0.109,-0.792,-0.009,-82.12,94.8,0
300310.0,0.707,0.513,-0.076,35.81,-96.15,0
300315.0,0.063,0.947,0.609,57.12,-5.93,0
300320.0,0.463,-0.411,1.078,-19.31,-23.25,0
300325.0,0.372,-1.395,0.247,-72.25,-56.42,0
300330.0,-0.578,-0.006,-0.565,-0.45,134.31,0
300335.0,-0.188,1.528,-0.593,67.84,162.4,0
300340.0,0.042,-0.102,-0.296,-18.83,-172.0,0
300345.0,-0.143,-1.215,0.103,-81.75,54.08,0
300350.0,-0.399,-0.409,-0.217,-41.96,118.6,0
300355.0,0.492,1.131,-0.613,55.22,-141.24,0
300360.0,0.566,0.212,0.831,11.88,-34.25,0
300365.0,0.032,-1.8,0.692,-68.94,-2.65,0
300370.0,-0.035,-0.049,-0.162,-16.56,167.85,0
300375.0,-0.207,1.6,-0.639,67.23,162.02,0
300380.0,0.238,0.975,-0.016,76.26,-93.93,0
300385.0,-0.1,-2.175,-0.024,-87.31,103.3,0
300390.0,-0.564,-1.651,-0.375,-67.69,123.65,0
300395.0,-0.188,2.5,0.412,79.73,24.54,0
300400.0,-0.162,1.725,-0.677,68.02,166.56,0
300405.0,-0.057,0.231,-0.553,22.55,174.16,0
300410.0,0.046,-2.269,0.934,-67.6,-2.85,0
300415.0,0.42,-0.581,1.243,-23.88,-18.67,0
300420.0,0.334,1.208,-0.536,62.4,-148.09,0
300425.0,-0.674,1.054,0.132,56.91,78.92,0
300430.0,-0.09,-1.05,0.975,-47.01,5.28,0
300435.0,0.679,-0.887,0.716,-41.97,-43.45,0
300440.0,-0.162,0.145,-0.265,24.94,148.62,0
300445.0,-0.037,1.461,-0.308,78.0,173.1,0
300450.0,-0.306,0.372,-0.002,50.6,90.37,0
300455.0,0.623,-0.842,0.237,-51.61,-69.15,0
300460.0,-0.744,-0.768,0.182,-45.07,76.22,0
300465.0,0.26,0.599,0.046,66.27,-79.97,0
300470.0,-0.947,0.729,0.36,35.73,69.21,0
300475.0,-0.408,-0.971,0.194,-65.03,64.56,0
300480.0,-0.387,-0.219,-0.045,-29.39,96.65,0
300485.0,0.283,0.439,-0.404,41.64,-144.96,0
300490.0,0.178,0.602,-0.306,59.53,-149.8,0
300495.0,0.243,-0.974,-0.361,-65.92,-146.09,0
300500.0,-0.095,-0.265,0.206,-49.4,24.68,0
300505.0,0.19,-0.363,0.12,-58.23,-57.71,0
300510.0,0.315,1.246,0.149,74.39,-64.68,0
300515.0,-0.246,-0.289,-0.155,-44.83,122.29,0
300520.0,0.161,-0.231,0.168,-44.8,-43.85,0
300525.0,-0.334,-0.598,-0.093,-59.87,105.55,0
300530.0,0.207,0.688,-0.213,66.67,-135.8,0
300535.0,-0.339,0.042,-0.318,5.11,133.17,0
300540.0,0.161,-0.006,0.125,-1.77,-52.26,0
300545.0,-0.284,-0.883,-0.064,-71.74,102.75,0
300550.0,0.25,0.415,0.02,58.87,-85.53,0
300555.0,-0.262,0.185,-0.167,30.77,122.5,0
300560.0,0.19,0.329,0.204,49.71,-42.99,0
300565.0,-0.306,-0.844,-0.1,-69.15,108.15,0
300570.0,0.281,0.08,-0.007,15.86,-91.38,0
300575.0,-0.356,0.08,-0.296,9.79,129.81,0
300580.0,0.142,0.592,0.029,76.23,-78.42,0
300585.0,-0.353,-0.511,-0.198,-51.61,119.3,0
300590.0,0.171,-0.126,-0.004,-36.39,-91.47,0
300595.0,-0.255,-0.217,-0.258,-30.87,135.33,0
300600.0,0.113,0.609,0.041,78.79,-70.09,0
300605.0,-0.313,-0.315,-0.146,-42.42,114.98,0
300610.0,0.238,0.001,0.12,0.19,-63.22,0
300615.0,-0.167,-0.382,-0.047,-65.61,105.91,0
300620.0,0.188,0.568,0.139,67.64,-53.43,0
300625.0,-0.272,-0.222,-0.086,-37.87,107.51,0
300630.0,0.231,0.089,0.079,20.13,-71.01,0
300635.0,-0.207,-0.471,-0.203,-58.35,134.41,0
300640.0,0.183,0.367,0.103,60.22,-60.53,0
300645.0,-0.188,-0.124,-0.076,-31.34,112.05,0
300650.0,0.238,0.224,0.154,38.28,-57.16,0
300655.0,-0.136,-0.464,-0.083,-71.06,121.61,0
300660.0,0.159,0.303,0.213,48.66,-36.67,0
300665.0,-0.296,-0.054,-0.146,-9.33,116.21,0
300670.0,0.159,0.326,-0.129,57.92,-129.03,0
300675.0,-0.162,-0.397,-0.155,-60.51,133.8,0
300680.0,0.094,0.063,0.099,24.83,-43.74,0
300685.0,-0.286,-0.167,-0.239,-24.08,129.85,0
300690.0,0.121,0.336,-0.045,69.03,-110.49,0
300695.0,-0.207,-0.21,-0.191,-36.65,132.67,0
300700.0,0.092,0.202,0.096,56.63,-43.71,0
300705.0,-0.308,-0.409,-0.198,-48.12,122.79,0
300710.0,0.152,0.334,0.027,65.21,-80.01,0
300715.0,-0.267,-0.251,-0.206,-36.62,127.56,0
300720.0,0.121,0.279,0.113,59.32,-46.9,0
300725.0,-0.21,-0.332,-0.213,-48.02,135.4,0
300730.0,0.092,0.271,0.034,70.15,-69.75,0
300735.0,-0.068,-0.227,-0.16,-52.47,156.83,0
300740.0,0.058,0.3,0.072,72.8,-38.97,0
300745.0,-0.188,-0.334,-0.11,-56.91,120.25,0
300750.0,0.118,0.279,0.063,64.34,-62.09,0
300755.0,-0.155,-0.325,-0.232,-49.36,146.29,0
300760.0,0.063,0.326,0.077,73.03,-39.38,0
300765.0,-0.248,-0.253,-0.098,-43.49,111.51,0
300770.0,0.046,0.25,-0.026,77.98,-119.18,0
300775.0,-0.183,-0.241,-0.301,-34.34,148.67,0
300780.0,0.044,0.343,0.072,76.15,-31.38,0
300785.0,-0.219,-0.346,-0.194,-49.81,131.43,0
300790.0,0.118,0.24,0.034,62.89,-74.0,0
300795.0,-0.119,-0.277,-0.141,-56.36,139.87,0
300800.0,0.07,0.408,0.127,70.37,-28.94,0
300805.0,-0.145,-0.32,-0.146,-57.28,135.11,0
300810.0,0.128,0.257,0.036,62.66,-74.14,0
300815.0,-0.167,-0.375,-0.196,-55.56,139.62,0
300820.0,0.075,0.458,0.101,74.64,-36.67,0
300825.0,-0.181,-0.286,-0.194,-47.23,136.92,0
300830.0,0.09,0.324,0.079,69.73,-48.43,0
300835.0,-0.037,-0.476,-0.091,-78.36,157.59,0
300840.0,0.116,0.365,0.158,61.72,-36.18,0
300845.0,-0.169,-0.243,-0.198,-43.04,139.56,0
300850.0,0.046,0.417,-0.004,83.62,-95.4,0
300855.0,-0.09,-0.406,-0.194,-62.28,155.05,0
300860.0,0.061,0.267,0.18,54.53,-18.67,0
300865.0,-0.155,-0.325,-0.158,-55.78,135.54,0
300870.0,0.044,0.398,-0.012,83.48,-104.72,0
300875.0,-0.121,-0.26,-0.194,-48.72,147.95,0
300880.0,0.058,0.279,0.132,62.6,-23.86,0
300885.0,-0.052,-0.413,-0.076,-77.44,145.84,0
300890.0,-0.011,0.298,0.06,78.38,10.36,0
300895.0,-0.021,-0.207,-0.124,-58.76,170.58,0
300900.0,0.023,0.386,0.137,70.25,-9.34,0
300905.0,-0.045,-0.365,-0.11,-72.04,157.91,0
300910.0,0.027,0.336,0.077,76.33,-19.51,0
300915.0,-0.061,-0.298,-0.095,-69.2,147.27,0
300920.0,0.011,0.377,0.12,72.25,-5.01,0
300925.0,-0.164,-0.392,-0.191,-57.25,139.33,0
300930.0,0.008,0.303,-0.055,79.65,-171.53,0
300935.0,-0.037,-0.351,-0.146,-66.82,165.62,0
300940.0,-0.016,0.41,0.094,76.95,9.57,0
300945.0,-0.066,-0.389,-0.174,-64.41,159.25,0
300950.0,-0.006,0.276,-0.002,88.64,107.76,0
300955.0,-0.004,-0.339,-0.117,-70.97,178.12,0
300960.0,-0.011,0.374,0.118,72.47,5.34,0
300965.0,-0.088,-0.284,-0.196,-52.92,155.9,0
300970.0,-0.001,0.226,0.017,85.64,4.79,0
300975.0,-0.011,-0.356,-0.047,-82.2,166.94,0
300980.0,-0.09,0.37,-0.004,76.3,92.79,0
300985.0,-0.001,-0.227,-0.138,-58.57,179.41,0
300990.0,-0.076,0.348,-0.014,77.54,100.46,0
300995.0,0.056,-0.377,-0.237,-57.21,-166.68,0
301000.0,-0.023,0.264,0.134,62.69,9.7,0
301005.0,0.078,-0.255,0.0,-73.1,-89.7,0
301010.0,-0.018,0.374,0.077,78.06,13.29,0
301015.0,0.034,-0.322,-0.038,-80.97,-137.71,0
301020.0,-0.006,0.255,0.091,70.22,3.9,0
301025.0,0.046,-0.274,-0.033,-78.26,-125.49,0
301030.0,-0.116,0.386,0.043,72.18,69.5,0
301035.0,-0.339,-0.279,-0.129,-37.59,110.82,0
301040.0,-0.057,0.183,0.163,46.63,19.1,0
301045.0,0.106,-0.318,-0.158,-59.09,-146.0,0
301050.0,-0.071,0.312,0.046,74.86,57.08,0
301055.0,0.027,-0.138,-0.1,-53.05,-164.76,0
301060.0,-0.047,0.226,0.077,68.24,31.35,0
301065.0,0.137,-0.507,-0.184,-65.62,-143.24,0
301070.0,-0.08,0.377,0.106,70.57,37.26,0
301075.0,-0.306,-0.258,-0.153,-37.03,116.58,0
301080.0,-0.107,0.324,0.043,70.42,67.84,0
301085.0,0.13,-0.432,-0.093,-69.69,-125.52,0
301090.0,-0.09,0.231,0.091,60.93,44.57,0
301095.0,0.082,-0.186,-0.206,-40.02,-158.16,0
301100.0,-0.083,0.262,0.082,66.03,45.36,0
301105.0,0.159,-0.356,-0.059,-64.5,-110.51,0
301110.0,0.298,0.178,0.058,30.41,-79.01,0
301115.0,-0.25,-0.229,-0.198,-35.63,128.38,0
301120.0,0.228,0.31,0.103,51.01,-65.65,0
301125.0,-0.382,-0.385,-0.095,-44.32,104.01,0
301130.0,0.317,0.236,0.094,35.47,-73.52,0
301135.0,-0.27,-0.231,-0.148,-36.95,118.77,0
301140.0,0.209,0.362,0.137,55.4,-56.81,0
301145.0,-0.226,-0.382,-0.086,-57.64,110.75,0
301150.0,0.262,0.262,0.108,42.74,-67.57,0
301155.0,-0.25,-0.255,-0.115,-42.83,114.57,0
301160.0,0.173,0.324,0.065,60.26,-69.43,0
301165.0,-0.332,-0.289,-0.136,-38.84,112.3,0
301170.0,0.231,0.147,0.034,32.2,-81.64,0
301175.0,-0.337,-0.224,-0.273,-27.37,128.99,0
301180.0,0.157,0.276,0.024,60.16,-81.16,0
301185.0,-0.382,-0.289,-0.119,-35.81,107.34,0
301190.0,0.243,0.216,-0.016,41.64,-93.86,0
301195.0,-0.279,-0.251,-0.229,-34.73,129.42,0
301200.0,0.149,0.312,0.058,62.83,-68.83,0
301205.0,-0.361,-0.248,-0.16,-32.17,113.93,0
301210.0,0.216,0.264,0.008,50.66,-87.99,0
301215.0,-0.152,-0.33,-0.107,-60.52,125.18,0
301220.0,0.183,0.286,0.185,47.71,-44.71,0
301225.0,-0.303,-0.377,-0.064,-50.61,101.97,0
301230.0,0.226,0.283,-0.055,50.63,-103.6,0
301235.0,-0.26,-0.277,-0.174,-41.49,123.85,0
301240.0,0.147,0.274,0.139,53.52,-46.55,0
301245.0,-0.272,-0.308,-0.105,-46.57,111.1,0
301250.0,0.149,0.214,-0.016,54.92,-96.25,0
301255.0,-0.203,-0.14,-0.162,-28.4,128.72,0
301260.0,0.121,0.247,0.082,59.5,-55.87,0
301265.0,-0.339,-0.282,-0.153,-37.14,114.27,0
301270.0,0.26,0.135,0.087,26.26,-71.55,0
301275.0,-0.15,-0.203,-0.115,-47.05,127.38,0
301280.0,0.154,0.298,0.123,56.52,-51.53,0
301285.0,-0.274,-0.253,-0.021,-42.58,94.41,0
301290.0,0.2,0.168,0.103,36.84,-62.63,0
301295.0,-0.176,-0.219,-0.186,-40.54,136.6,0
301300.0,0.099,0.315,0.099,66.04,-45.16,0
301305.0,-0.279,-0.289,-0.105,-44.08,110.6,0
301310.0,0.226,0.113,0.087,25.11,-69.04,0
301315.0,-0.171,-0.181,-0.206,-34.08,140.17,0
301320.0,0.09,0.31,0.089,67.83,-45.18,0
301325.0,-0.27,-0.207,-0.131,-34.67,115.96,0
301330.0,0.08,0.159,-0.115,48.68,-145.07,0
301335.0,-0.162,-0.27,-0.261,-41.32,148.15,0
301340.0,0.092,0.269,0.067,67.03,-53.74,0
301345.0,-0.27,-0.301,-0.107,-46.03,111.71,0
301350.0,0.142,0.216,0.0,56.68,-89.84,0
301355.0,-0.181,-0.224,-0.138,-44.53,127.42,0
301360.0,0.116,0.291,0.146,57.27,-38.35,0
301365.0,-0.191,-0.205,-0.143,-40.69,126.93,0
301370.0,0.157,0.202,0.058,50.43,-69.72,0
301375.0,-0.107,-0.246,-0.141,-54.27,142.84,0
301380.0,0.125,0.303,0.113,60.84,-48.01,0
301385.0,-0.27,-0.349,-0.186,-46.77,124.65,0
301390.0,0.125,0.195,-0.016,57.0,-97.43,0
301395.0,-0.171,-0.282,-0.215,-45.68,141.44,0
301400.0,0.08,0.405,0.123,70.16,-33.14,0
301405.0,-0.226,-0.337,-0.179,-49.38,128.35,0
301410.0,0.049,0.159,0.003,72.89,-86.73,0
301415.0,-0.107,-0.246,-0.17,-50.8,147.8,0
301420.0,0.094,0.295,0.101,64.93,-43.06,0
301425.0,-0.308,-0.203,-0.191,-29.21,121.83,0
301430.0,0.161,0.142,0.015,41.26,-84.77,0
301435.0,-0.107,-0.392,-0.086,-70.73,128.78,0
301440.0,0.094,0.3,0.13,61.89,-36.03,0
301445.0,-0.246,-0.253,-0.196,-38.83,128.58,0
301450.0,0.042,0.379,0.034,81.94,-50.85,0
301455.0,-0.167,-0.421,-0.217,-56.91,142.54,0
301460.0,0.085,0.389,0.079,73.37,-46.87,0
301465.0,-0.243,-0.349,-0.22,-46.76,132.11,0
301470.0,0.099,0.307,0.005,72.1,-87.0,0
301475.0,-0.09,-0.296,-0.153,-59.07,149.5,0
301480.0,0.023,0.365,0.094,75.19,-13.5,0
301485.0,-0.128,-0.318,-0.141,-59.03,137.66,0
301490.0,0.018,0.259,0.043,79.74,-22.16,0
301495.0,-0.052,-0.32,-0.143,-64.54,160.15,0
301500.0,0.008,0.405,0.048,83.11,-9.57,0
301505.0,-0.157,-0.31,-0.093,-59.54,120.62,0
301510.0,0.078,0.257,-0.007,73.15,-95.0,0
301515.0,-0.159,-0.332,-0.098,-60.6,121.51,0
301520.0,0.003,0.358,0.13,70.06,-1.48,0
301525.0,-0.138,-0.286,-0.155,-54.06,138.38,0
301530.0,0.027,0.293,-0.067,76.19,-157.73,0
301535.0,-0.071,-0.358,-0.124,-68.25,150.27,0
301540.0,0.013,0.358,0.173,64.15,-4.28,0
301545.0,-0.066,-0.294,-0.158,-59.8,157.25,0
301550.0,0.013,0.315,0.06,78.91,-12.11,0
301555.0,-0.045,-0.332,-0.103,-71.38,156.53,0
301560.0,-0.021,0.212,0.108,62.51,10.78,0
301565.0,-0.052,-0.308,-0.158,-61.69,161.84,0
301570.0,0.037,0.338,0.015,83.31,-68.18,0
301575.0,-0.1,-0.279,-0.124,-60.32,141.25,0
301580.0,0.066,0.389,0.139,68.4,-25.22,0
301585.0,-0.028,-0.394,-0.112,-73.67,166.09,0
301590.0,0.023,0.422,0.063,81.04,-19.76,0
301595.0,-0.033,-0.272,-0.131,-63.56,166.07,0
301600.0,0.013,0.353,0.142,68.04,-5.21,0
301605.0,-0.068,-0.413,-0.122,-71.33,150.64,0
301610.0,-0.028,0.343,-0.055,79.87,153.07,0
301615.0,-0.042,-0.248,-0.16,-56.3,165.25,0
301620.0,-0.011,0.331,0.077,76.78,8.14,0
301625.0,-0.083,-0.377,-0.043,-76.13,117.27,0
301630.0,-0.037,0.358,0.115,71.28,17.95,0
301635.0,-0.344,-0.327,-0.162,-40.71,115.28,0
301640.0,0.032,0.365,0.096,74.47,-18.45,0
301645.0,0.046,-0.428,-0.122,-73.06,-159.11,0
301650.0,-0.009,0.348,0.079,77.07,6.19,0
301655.0,0.023,-0.332,-0.081,-75.79,-164.47,0
301660.0,-0.061,0.437,0.099,75.11,31.88,0
301665.0,0.063,-0.337,-0.079,-73.32,-141.2,0
301670.0,-0.071,0.338,0.139,65.22,26.97,0
301675.0,-0.351,-0.251,-0.11,-34.26,107.36,0
301680.0,-0.083,0.427,0.089,74.11,42.95,0
301685.0,0.037,-0.5,-0.079,-80.14,-154.87,0
301690.0,-0.049,0.343,0.024,80.9,63.73,0
301695.0,0.034,-0.337,-0.186,-60.63,-169.52,0
301700.0,-0.073,0.425,0.142,69.42,27.35,0
301705.0,0.097,-0.502,-0.081,-75.89,-129.94,0
301710.0,-0.128,0.41,0.108,67.75,49.88,0
301715.0,-0.325,-0.377,-0.112,-47.7,109.05,0
301720.0,0.267,0.408,0.123,54.26,-65.33,0
301725.0,-0.356,-0.471,-0.107,-51.71,106.79,0
301730.0,0.307,0.295,0.012,43.83,-87.7,0
301735.0,-0.296,-0.277,-0.21,-37.33,125.4,0
301740.0,0.26,0.324,0.075,50.2,-73.96,0
301745.0,-0.392,-0.413,-0.136,-44.91,109.16,0
301750.0,0.31,0.312,0.089,44.08,-73.97,0
301755.0,-0.26,-0.284,-0.155,-43.17,120.84,0
301760.0,0.262,0.403,0.091,55.47,-70.77,0
301765.0,-0.418,-0.425,-0.136,-44.05,108.03,0
301770.0,0.329,0.233,0.06,34.88,-79.62,0
301775.0,-0.272,-0.255,-0.174,-38.32,122.67,0
301780.0,0.224,0.374,0.13,55.38,-59.89,0
301785.0,-0.325,-0.432,-0.052,-52.75,99.15,0
301790.0,0.3,0.24,0.012,38.65,-87.64,0
301795.0,-0.296,-0.277,-0.201,-37.75,124.15,0
301800.0,0.243,0.372,0.094,55.02,-68.88,0
301805.0,-0.315,-0.406,-0.069,-51.54,102.36,0
301810.0,0.24,0.25,0.072,44.87,-73.28,0
301815.0,-0.179,-0.286,-0.165,-49.69,132.7,0
301820.0,0.2,0.322,0.096,55.44,-64.28,0
301825.0,-0.317,-0.375,-0.04,-49.52,97.23,0
301830.0,0.262,0.224,0.029,40.31,-83.65,0
301835.0,-0.234,-0.255,-0.155,-42.3,123.6,0
301840.0,0.248,0.319,0.173,46.61,-55.09,0
301845.0,-0.313,-0.373,-0.079,-49.13,104.11,0
301850.0,0.231,0.212,-0.019,42.42,-94.65,0
301855.0,-0.174,-0.27,-0.15,-49.55,130.88,0
301860.0,0.202,0.36,0.187,52.58,-47.2,0
301865.0,-0.325,-0.38,-0.059,-49.01,100.38,0
301870.0,0.257,0.3,0.048,48.92,-79.37,0
301875.0,-0.203,-0.272,-0.095,-50.55,115.21,0
301880.0,0.236,0.298,0.12,48.39,-62.99,0
301885.0,-0.308,-0.377,-0.105,-49.24,108.82,0
301890.0,0.267,0.197,0.096,34.82,-70.17,0
301895.0,-0.212,-0.21,-0.155,-38.6,126.19,0
301900.0,0.164,0.35,0.084,62.28,-62.79,0
301905.0,-0.334,-0.277,-0.091,-38.64,105.16,0
301910.0,0.24,0.197,0.051,38.76,-78.09,0
301915.0,-0.183,-0.298,-0.191,-48.4,136.18,0
301920.0,0.178,0.379,0.154,58.19,-49.22,0
301925.0,-0.279,-0.385,-0.103,-52.29,110.17,0
301930.0,0.233,0.207,0.053,40.85,-77.18,0
301935.0,-0.231,-0.231,-0.174,-38.62,127.02,0
301940.0,0.197,0.322,0.137,53.26,-55.25,0
301945.0,-0.243,-0.31,-0.083,-50.36,108.92,0
301950.0,0.204,0.159,0.087,35.59,-67.05,0
301955.0,-0.045,-0.267,-0.083,-70.52,151.9,0
301960.0,0.082,0.322,0.142,63.01,-30.17,0
301965.0,-0.224,-0.186,-0.119,-36.21,118.03,0
301970.0,0.171,0.157,0.017,42.33,-84.27,0
301975.0,-0.243,-0.255,-0.201,-38.99,129.53,0
301980.0,0.118,0.305,0.053,66.97,-65.83,0
301985.0,-0.284,-0.248,-0.162,-37.18,119.77,0
301990.0,0.125,0.137,-0.043,46.02,-108.79,0
301995.0,-0.226,-0.26,-0.27,-36.42,140.02,0
302000.0,0.037,0.283,0.015,82.02,-68.18,0
302005.0,-0.267,-0.2,-0.162,-32.63,121.29,0
302010.0,0.128,0.195,0.005,56.7,-87.68,0
302015.0,-0.133,-0.308,-0.213,-50.83,147.96,0
302020.0,0.068,0.293,0.158,59.53,-23.23,0
302025.0,-0.219,-0.33,-0.112,-53.22,117.08,0
302030.0,0.073,0.262,-0.083,67.08,-138.89,0
302035.0,-0.171,-0.222,-0.174,-42.21,135.49,0
302040.0,0.133,0.322,0.163,56.83,-39.1,0
302045.0,-0.203,-0.267,-0.129,-48.07,122.47,0
302050.0,0.176,0.183,0.077,43.62,-66.34,0
302055.0,-0.131,-0.31,-0.088,-63.07,124.0,0
302060.0,0.09,0.394,0.113,69.89,-38.41,0
302065.0,-0.258,-0.286,-0.232,-39.57,131.99,0
302070.0,0.118,0.238,0.027,62.99,-77.26,0
302075.0,-0.124,-0.289,-0.122,-59.02,134.57,0
302080.0,0.094,0.362,0.125,66.64,-37.06,0
302085.0,-0.203,-0.253,-0.177,-43.25,131.11,0
302090.0,0.034,0.214,-0.071,69.66,-154.23,0
302095.0,-0.083,-0.296,-0.191,-54.86,156.57,0
302100.0,0.082,0.286,0.099,65.8,-39.88,0
302105.0,-0.229,-0.262,-0.136,-44.59,120.73,0
302110.0,0.197,0.324,0.051,57.85,-75.59,0
302115.0,-0.121,-0.298,-0.115,-60.81,133.39,0
302120.0,0.14,0.348,0.166,58.09,-40.18,0
302125.0,-0.152,-0.361,-0.179,-56.9,139.64,0
302130.0,0.054,0.334,-0.024,80.04,-113.7,0
302135.0,-0.131,-0.318,-0.162,-56.71,141.17,0
302140.0,0.073,0.41,0.134,69.56,-28.42,0
302145.0,-0.171,-0.313,-0.158,-53.33,132.6,0
302150.0,0.152,0.245,0.072,55.55,-64.55,0
302155.0,-0.09,-0.349,-0.05,-73.56,118.99,0
302160.0,0.08,0.389,0.091,72.65,-41.19,0
302165.0,-0.203,-0.239,-0.179,-41.42,131.49,0
302170.0,0.03,0.226,0.036,78.27,-39.27,0
302175.0,-0.095,-0.26,-0.136,-57.48,145.13,0
302180.0,0.07,0.341,0.091,71.3,-37.61,0
302185.0,-0.085,-0.234,-0.155,-52.85,151.23,0
302190.0,0.073,0.257,0.118,61.7,-31.73,0
302195.0,-0.013,-0.375,-0.225,-59.03,176.58,0
302200.0,0.003,0.401,0.111,74.57,-1.74,0
302205.0,-0.121,-0.282,-0.117,-59.13,133.98,0
302210.0,0.049,0.35,-0.007,81.99,-97.91,0
302215.0,-0.107,-0.377,-0.191,-59.88,150.81,0
302220.0,-0.001,0.456,0.118,75.52,0.7,0
302225.0,-0.097,-0.265,-0.11,-61.04,138.46,0
302230.0,0.056,0.326,0.063,75.56,-41.8,0
302235.0,-0.262,-0.322,-0.079,-49.64,106.68,0
302240.0,0.066,0.295,0.199,54.63,-18.23,0
302245.0,-0.143,-0.31,-0.028,-64.89,101.23,0
302250.0,-0.049,0.403,0.106,73.86,25.0,0
302255.0,0.044,-0.303,-0.079,-73.45,-150.73,0
302260.0,-0.045,0.317,0.101,70.8,23.8,0
302265.0,0.006,-0.334,-0.131,-68.54,-177.49,0
302270.0,-0.009,0.465,0.113,76.32,4.36,0
302275.0,-0.365,-0.315,-0.071,-40.25,101.06,0
302280.0,0.006,0.348,0.099,74.16,-3.34,0
302285.0,-0.068,-0.528,-0.071,-79.39,136.21,0
302290.0,-0.028,0.453,0.125,74.24,12.54,0
302295.0,0.003,-0.341,-0.124,-70.02,-178.45,0
302300.0,0.003,0.374,0.118,72.54,-1.63,0
302305.0,-0.08,-0.495,-0.007,-80.73,94.82,0
302310.0,-0.035,0.394,0.137,70.25,14.33,0
302315.0,-0.317,-0.358,-0.153,-45.48,115.71,0
302320.0,0.233,0.372,0.032,57.68,-82.3,0
302325.0,-0.392,-0.43,-0.031,-47.59,94.49,0
302330.0,0.41,0.394,0.101,42.96,-76.18,0
302335.0,-0.399,-0.356,-0.138,-40.12,109.14,0
302340.0,0.298,0.401,0.087,52.26,-73.79,0
302345.0,-0.373,-0.478,-0.074,-51.53,101.21,0
302350.0,0.31,0.355,0.089,47.78,-73.97,0
302355.0,-0.341,-0.318,-0.141,-40.69,112.42,0
302360.0,0.219,0.415,0.089,60.35,-67.87,0
302365.0,-0.377,-0.478,-0.141,-49.88,110.47,0
302370.0,0.348,0.307,0.005,41.44,-89.15,0
302375.0,-0.303,-0.313,-0.129,-43.52,113.04,0
302380.0,0.238,0.338,0.091,53.01,-68.99,0
302385.0,-0.337,-0.351,-0.117,-44.57,109.15,0
302390.0,0.324,0.31,0.12,41.86,-69.67,0
302395.0,-0.334,-0.291,-0.16,-38.16,115.58,0
302400.0,0.207,0.322,0.099,54.54,-64.52,0
302405.0,-0.408,-0.413,-0.124,-44.07,106.9,0
302410.0,0.374,0.37,0.099,43.67,-75.25,0
302415.0,-0.327,-0.339,-0.141,-43.6,113.3,0
302420.0,0.238,0.298,0.087,49.62,-70.01,0
302425.0,-0.325,-0.401,-0.119,-49.25,110.18,0
302430.0,0.334,0.293,0.111,39.8,-71.68,0
302435.0,-0.344,-0.262,-0.186,-33.87,118.46,0
302440.0,0.202,0.334,0.053,57.95,-75.28,0
302445.0,-0.303,-0.373,-0.038,-50.66,97.13,0
302450.0,0.272,0.207,0.082,36.1,-73.23,0
302455.0,-0.341,-0.279,-0.27,-32.68,128.35,0
302460.0,0.188,0.334,0.067,59.13,-70.24,0
302465.0,-0.344,-0.322,-0.105,-41.88,106.97,0
302470.0,0.279,0.226,0.017,38.98,-86.48,0
302475.0,-0.253,-0.33,-0.203,-45.46,128.78,0
302480.0,0.243,0.283,0.192,42.48,-51.67,0
302485.0,-0.339,-0.406,-0.033,-50.01,95.58,0
302490.0,0.24,0.283,-0.002,49.69,-90.48,0
302495.0,-0.243,-0.207,-0.136,-36.66,119.22,0
302500.0,0.221,0.255,0.146,43.83,-56.5,0
302505.0,-0.387,-0.389,-0.112,-44.03,106.16,0
302510.0,0.255,0.247,-0.009,44.15,-92.06,0
302515.0,-0.226,-0.164,-0.201,-28.5,131.55,0
302520.0,0.176,0.288,0.108,54.4,-58.39,0
302525.0,-0.322,-0.363,-0.1,-47.09,107.26,0
302530.0,0.238,0.2,0.048,39.42,-78.53,0
302535.0,-0.246,-0.155,-0.148,-28.35,121.08,0
302540.0,0.161,0.257,0.089,54.36,-61.13,0
302545.0,-0.346,-0.344,-0.191,-41.01,118.9,0
302550.0,0.197,0.113,0.072,28.36,-69.89,0
302555.0,-0.15,-0.119,-0.129,-31.01,130.69,0
302560.0,0.137,0.338,0.032,67.38,-77.08,0
302565.0,-0.303,-0.315,-0.117,-44.13,111.09,0
302570.0,0.291,0.099,0.185,16.04,-57.56,0
302575.0,-0.224,-0.322,-0.196,-47.28,131.16,0
302580.0,0.133,0.386,0.017,70.91,-82.63,0
302585.0,-0.26,-0.234,-0.119,-39.25,114.65,0
302590.0,0.272,0.207,0.103,35.44,-69.16,0
302595.0,-0.219,-0.353,-0.177,-51.45,128.87,0
302600.0,0.133,0.324,0.13,60.21,-45.64,0
302605.0,-0.322,-0.222,-0.134,-32.44,112.53,0
302610.0,0.135,0.236,-0.045,58.85,-108.47,0
302615.0,-0.193,-0.346,-0.201,-51.2,136.13,0
302620.0,0.092,0.183,0.055,59.58,-58.9,0
302625.0,-0.317,-0.169,-0.172,-25.1,118.45,0
302630.0,0.087,0.192,-0.103,55.03,-139.64,0
302635.0,-0.267,-0.155,-0.287,-21.54,137.04,0
302640.0,0.099,0.171,0.048,57.17,-64.03,0
302645.0,-0.301,-0.262,-0.179,-36.87,120.79,0
302650.0,0.099,0.226,-0.026,65.61,-104.66,0
302655.0,-0.181,-0.224,-0.148,-43.79,129.28,0
302660.0,0.147,0.326,0.12,59.82,-50.75,0
302665.0,-0.255,-0.401,-0.129,-54.53,116.79,0
302670.0,0.202,0.2,0.077,42.71,-69.14,0
302675.0,-0.167,-0.27,-0.191,-46.76,138.92,0
302680.0,0.07,0.346,0.051,75.91,-54.25,0
302685.0,-0.203,-0.243,-0.146,-44.29,125.72,0
302690.0,0.169,0.2,0.077,47.13,-65.44,0
302695.0,-0.107,-0.318,-0.091,-66.2,130.31,0
302700.0,0.066,0.334,0.106,69.55,-31.81,0
302705.0,-0.224,-0.315,-0.165,-48.57,126.33,0
302710.0,0.159,0.224,0.029,54.13,-79.62,0
302715.0,-0.186,-0.255,-0.263,-38.41,144.76,0
302720.0,0.034,0.286,0.043,79.01,-38.4,0
302725.0,-0.277,-0.265,-0.206,-37.54,126.59,0
302730.0,-0.001,0.19,-0.115,58.92,179.28,0
302735.0,-0.188,-0.215,-0.249,-34.54,142.87,0
302740.0,0.02,0.305,0.07,76.6,-16.07,0
302745.0,-0.226,-0.205,-0.201,-34.12,131.55,0
302750.0,0.034,0.224,-0.052,74.35,-146.59,0
302755.0,-0.104,-0.416,0.003,-75.9,88.47,0
302760.0,0.085,0.394,0.161,65.21,-27.79,0
302765.0,-0.186,-0.327,-0.131,-55.18,125.25,0
302770.0,0.051,0.255,-0.004,78.58,-94.9,0
302775.0,-0.042,-0.341,-0.143,-66.38,163.61,0
302780.0,-0.013,0.298,0.029,83.85,24.72,0
302785.0,-0.219,-0.248,-0.182,-41.07,129.62,0
302790.0,0.113,0.257,-0.016,65.96,-98.2,0
302795.0,-0.143,-0.375,-0.045,-68.25,107.54,0
302800.0,-0.03,0.334,-0.036,82.05,139.65,0
302805.0,-0.159,-0.262,-0.206,-45.26,142.19,0
302810.0,0.044,0.286,-0.004,81.19,-95.69,0
302815.0,-0.152,-0.334,-0.146,-57.78,133.73,0
302820.0,0.044,0.326,0.008,82.2,-80.23,0
302825.0,-0.136,-0.308,0.067,-63.83,63.54,0
302830.0,0.051,0.281,0.108,66.93,-25.35,0
302835.0,-0.246,-0.444,-0.079,-59.87,107.75,0
302840.0,-0.028,0.365,0.163,65.59,9.66,0
302845.0,-0.092,-0.363,0.012,-75.6,82.38,0
302850.0,0.046,0.355,0.082,75.17,-29.59,0
302855.0,-0.088,-0.385,-0.155,-65.13,150.55,0
302860.0,0.058,0.377,0.13,69.32,-24.25,0
302865.0,-0.114,-0.279,0.027,-67.26,76.8,0
302870.0,0.011,0.485,0.111,77.09,-5.44,0
302875.0,-0.31,-0.375,-0.095,-49.12,107.09,0
302880.0,0.023,0.413,0.166,67.95,-7.74,0
302885.0,-0.085,-0.533,-0.059,-78.97,124.9,0
302890.0,0.018,0.461,0.041,84.45,-23.32,0
302895.0,-0.088,-0.344,-0.103,-68.58,139.49,0
302900.0,0.104,0.42,0.146,66.84,-35.36,0
302905.0,-0.083,-0.54,-0.069,-78.71,129.81,0
302910.0,0.324,0.477,0.034,55.67,-84.03,0
302915.0,-0.298,-0.365,-0.095,-49.4,107.73,0
302920.0,0.336,0.41,0.091,49.67,-74.79,0
302925.0,-0.413,-0.571,-0.028,-54.06,93.92,0
302930.0,0.346,0.417,0.02,50.33,-86.76,0
302935.0,-0.349,-0.303,-0.222,-36.25,122.52,0
302940.0,0.298,0.37,0.089,49.93,-73.37,0
302945.0,-0.406,-0.54,-0.081,-52.53,101.28,0
302950.0,0.384,0.432,0.134,46.7,-70.7,0
302955.0,-0.296,-0.279,-0.028,-43.21,95.47,0
302960.0,0.348,0.334,0.161,41.03,-65.21,0
302965.0,-0.435,-0.557,-0.191,-49.54,113.73,0
302970.0,0.341,0.463,0.099,52.53,-73.88,0
302975.0,-0.31,-0.37,-0.079,-49.15,104.22,0
302980.0,0.317,0.394,0.091,50.03,-73.92,0
302985.0,-0.358,-0.519,-0.088,-54.58,103.83,0
302990.0,0.408,0.288,0.151,33.52,-69.66,0
302995.0,-0.308,-0.272,-0.115,-39.63,110.4,0
303000.0,0.25,0.384,0.072,55.88,-73.88,0
303005.0,-0.353,-0.43,-0.086,-49.78,103.65,0
303010.0,0.386,0.252,0.094,32.39,-76.36,0
303015.0,-0.262,-0.327,-0.131,-48.11,116.58,0
303020.0,0.216,0.374,0.113,56.89,-62.45,0
303025.0,-0.375,-0.432,-0.112,-47.86,106.65,0
303030.0,0.379,0.379,0.043,44.81,-83.46,0
303035.0,-0.291,-0.351,-0.138,-47.44,115.44,0
303040.0,0.231,0.3,0.106,49.78,-65.38,0
303045.0,-0.368,-0.392,-0.04,-46.64,96.25,0
303050.0,0.406,0.317,0.127,36.71,-72.58,0
303055.0,-0.349,-0.279,-0.143,-36.54,112.34,0
303060.0,0.178,0.334,0.0,61.9,-89.87,0
303065.0,-0.325,-0.43,-0.15,-50.24,114.86,0
303070.0,0.307,0.226,0.072,35.58,-76.78,0
303075.0,-0.332,-0.318,-0.162,-40.68,116.08,0
303080.0,0.2,0.396,0.032,62.95,-81.03,0
303085.0,-0.389,-0.382,-0.079,-43.9,101.42,0
303090.0,0.257,0.312,-0.028,50.35,-96.29,0
303095.0,-0.25,-0.339,-0.143,-49.61,119.77,0
303100.0,0.157,0.31,0.099,59.15,-57.81,0
303105.0,-0.385,-0.452,-0.141,-47.8,110.12,0
303110.0,0.3,0.408,0.06,53.1,-78.65,0
303115.0,-0.32,-0.279,-0.158,-38.06,116.23,0
303120.0,0.233,0.305,0.106,49.98,-65.61,0
303125.0,-0.346,-0.452,-0.119,-50.96,109.02,0
303130.0,0.288,0.257,0.075,40.8,-75.49,0
303135.0,-0.262,-0.239,-0.17,-37.36,122.87,0
303140.0,0.178,0.271,0.055,55.5,-72.7,0
303145.0,-0.344,-0.368,-0.136,-44.85,111.59,0
303150.0,0.324,0.204,0.06,31.79,-79.47,0
303155.0,-0.258,-0.262,-0.148,-41.46,119.88,0
303160.0,0.202,0.355,0.123,56.37,-58.77,0
303165.0,-0.363,-0.392,-0.038,-47.03,95.96,0
303170.0,0.353,0.262,0.077,35.94,-77.69,0
303175.0,-0.289,-0.258,-0.215,-35.59,126.68,0
303180.0,0.207,0.334,0.079,56.41,-69.0,0
303185.0,-0.317,-0.394,-0.081,-50.27,104.31,0
303190.0,0.228,0.221,0.029,43.84,-82.73,0
303195.0,-0.294,-0.193,-0.222,-27.67,127.13,0
303200.0,0.183,0.298,0.113,54.17,-58.31,0
303205.0,-0.332,-0.411,-0.038,-50.9,96.52,0
303210.0,0.267,0.224,0.034,39.74,-82.75,0
303215.0,-0.224,-0.219,-0.222,-34.8,134.76,0
303220.0,0.161,0.334,0.139,57.43,-49.21,0
303225.0,-0.325,-0.334,-0.117,-44.09,109.81,0
303230.0,0.226,0.204,0.017,42.04,-85.66,0
303235.0,-0.157,-0.236,-0.119,-50.13,127.22,0
303240.0,0.147,0.346,0.154,58.4,-43.74,0
303245.0,-0.313,-0.37,-0.141,-47.19,114.25,0
303250.0,0.212,0.183,0.01,40.79,-87.3,0
303255.0,-0.219,-0.164,-0.167,-30.79,127.32,0
303260.0,0.106,0.298,0.051,68.42,-64.51,0
303265.0,-0.284,-0.303,-0.143,-43.63,116.77,0
303270.0,0.121,0.183,0.029,55.83,-76.43,0
303275.0,-0.195,-0.227,-0.198,-39.14,135.43,0
303280.0,0.092,0.317,0.022,73.39,-76.57,0
303285.0,-0.313,-0.32,-0.124,-43.56,111.65,0
303290.0,0.207,0.192,0.063,41.68,-73.15,0
303295.0,-0.157,-0.279,-0.186,-48.89,139.87,0
303300.0,0.118,0.334,0.091,65.87,-52.31,0
303305.0,-0.205,-0.219,-0.062,-45.7,106.79,0
303310.0,0.197,0.123,0.075,30.25,-69.28,0
303315.0,-0.212,-0.243,0.027,-48.7,82.82,0
303320.0,0.087,0.329,0.051,72.96,-59.82,0
303325.0,-0.234,-0.193,-0.138,-35.4,120.65,0
303330.0,0.157,0.183,0.012,49.34,-85.48,0
303335.0,-0.128,-0.284,-0.203,-49.77,147.71,0
303340.0,0.061,0.291,0.151,60.71,-21.91,0
303345.0,-0.236,-0.277,-0.143,-45.07,121.25,0
303350.0,0.19,0.219,0.053,47.94,-74.4,0
303355.0,-0.246,-0.346,0.053,-54.03,77.81,0
303360.0,0.14,0.288,0.091,59.9,-56.83,0
303365.0,-0.306,-0.291,-0.217,-37.83,125.45,0
303370.0,0.166,0.271,0.039,57.85,-76.89,0
303375.0,-0.157,-0.325,-0.167,-54.76,136.79,0
303380.0,0.092,0.329,0.139,63.1,-33.43,0
303385.0,-0.183,-0.325,-0.196,-50.43,136.89,0
303390.0,0.094,0.3,0.02,72.21,-78.29,0
303395.0,-0.119,-0.279,0.046,-65.49,68.87,0
303400.0,0.032,0.281,0.063,75.94,-27.12,0
303405.0,-0.198,-0.286,-0.21,-44.78,136.76,0
303410.0,0.078,0.293,0.012,74.99,-80.94,0
303415.0,-0.09,-0.191,-0.182,-43.25,153.63,0
303420.0,0.013,0.209,0.075,70.1,-9.83,0
303425.0,-0.159,-0.301,-0.045,-61.15,105.79,0
303430.0,0.09,0.152,0.146,41.47,-31.44,0
303435.0,-0.301,-0.339,-0.031,-48.29,95.83,0
303440.0,0.049,0.307,0.142,64.01,-19.02,0
303445.0,-0.284,-0.289,0.032,-45.31,83.66,0
303450.0,0.104,0.202,0.194,42.51,-28.13,0
303455.0,-0.068,-0.315,-0.002,-77.74,91.67,0
303460.0,-0.047,0.367,0.096,73.75,26.01,0
303465.0,-0.171,-0.356,-0.016,-64.18,95.45,0
303470.0,0.13,0.41,0.19,60.73,-34.5,0
303475.0,-0.284,-0.351,-0.062,-50.38,102.29,0
303480.0,-0.018,0.341,0.089,75.08,11.56,0
303485.0,-0.124,-0.456,0.0,-74.85,89.81,0
303490.0,0.066,0.461,0.132,72.24,-26.41,0
303495.0,-0.073,-0.303,-0.138,-62.68,152.12,0
303500.0,0.006,0.324,0.096,73.45,-3.42,0
303505.0,-0.169,-0.507,0.024,-71.37,81.81,0
303510.0,0.013,0.417,0.187,65.8,-3.95,0
303515.0,-0.246,-0.375,-0.038,-56.46,98.77,0
303520.0,0.384,0.417,0.17,44.82,-66.07,0
303525.0,-0.373,-0.416,0.043,-47.94,83.34,0
303530.0,0.413,0.496,0.137,48.79,-71.65,0
303535.0,-0.37,-0.447,-0.088,-49.58,103.4,0
303540.0,0.422,0.425,0.142,43.63,-71.46,0
303545.0,-0.284,-0.547,0.046,-62.28,80.82,0
303550.0,0.418,0.449,0.139,45.54,-71.56,0
303555.0,-0.291,-0.368,-0.026,-51.53,95.09,0
303560.0,0.384,0.398,0.209,42.34,-61.48,0
303565.0,-0.32,-0.432,0.015,-53.48,87.36,0
303570.0,0.394,0.391,0.127,43.4,-72.08,0
303575.0,-0.349,-0.363,-0.074,-45.53,101.96,0
303580.0,0.374,0.458,0.144,48.79,-68.96,0
303585.0,-0.37,-0.497,-0.059,-52.98,99.13,0
303590.0,0.425,0.429,0.209,42.22,-63.83,0
303595.0,-0.358,-0.437,-0.057,-50.33,99.05,0
303600.0,0.339,0.425,0.096,50.35,-74.14,0
303605.0,-0.31,-0.444,-0.045,-54.8,98.27,0
303610.0,0.339,0.425,0.111,50.02,-71.92,0
303615.0,-0.373,-0.473,-0.227,-47.32,121.36,0
303620.0,0.283,0.434,0.039,56.62,-82.22,0
303625.0,-0.375,-0.404,-0.036,-46.99,95.41,0
303630.0,0.358,0.341,0.096,42.62,-74.95,0
303635.0,-0.351,-0.416,-0.122,-48.22,109.12,0
303640.0,0.374,0.422,0.182,45.39,-64.03,0
303645.0,-0.392,-0.473,-0.002,-50.38,90.29,0
303650.0,0.396,0.405,0.115,44.51,-73.76,0
303655.0,-0.31,-0.37,-0.11,-48.36,109.48,0
303660.0,0.288,0.425,0.144,52.81,-63.45,0
303665.0,-0.361,-0.49,-0.083,-52.93,103.02,0
303670.0,0.358,0.456,0.032,51.77,-84.96,0
303675.0,-0.253,-0.358,-0.055,-54.17,102.2,0
303680.0,0.336,0.355,0.197,42.37,-59.66,0
303685.0,-0.394,-0.528,-0.057,-52.99,98.24,0
303690.0,0.386,0.403,0.063,45.84,-80.79,0
303695.0,-0.296,-0.188,-0.122,-30.47,112.36,0
303700.0,0.245,0.315,0.127,48.71,-62.56,0
303705.0,-0.375,-0.483,-0.134,-50.49,109.62,0
303710.0,0.372,0.386,0.113,44.82,-73.12,0
303715.0,-0.337,-0.219,-0.117,-31.62,109.15,0
303720.0,0.248,0.324,0.089,50.93,-70.23,0
303725.0,-0.315,-0.488,-0.091,-56.08,106.04,0
303730.0,0.362,0.307,0.137,38.42,-69.31,0
303735.0,-0.27,-0.267,-0.182,-39.43,123.96,0
303740.0,0.137,0.391,0.094,66.96,-55.69,0
303745.0,-0.353,-0.432,-0.11,-49.45,107.25,0
303750.0,0.264,0.281,0.022,46.65,-85.25,0
303755.0,-0.243,-0.26,-0.158,-41.9,122.94,0
303760.0,0.267,0.276,0.115,43.55,-66.62,0
303765.0,-0.327,-0.528,-0.028,-58.14,94.95,0
303770.0,0.367,0.262,0.084,34.8,-77.09,0
303775.0,-0.32,-0.222,-0.201,-30.43,122.11,0
303780.0,0.274,0.379,0.118,51.82,-66.74,0
303785.0,-0.315,-0.404,0.027,-51.93,85.15,0
303790.0,0.343,0.161,0.178,22.65,-62.65,0
303795.0,-0.191,-0.258,-0.1,-50.12,117.72,0
303800.0,0.231,0.391,0.178,53.33,-52.43,0
303805.0,-0.301,-0.363,-0.04,-50.11,97.63,0
303810.0,0.339,0.228,0.036,33.85,-83.88,0
303815.0,-0.313,-0.27,-0.146,-38.02,114.98,0
303820.0,0.171,0.348,0.084,61.3,-63.78,0
303825.0,-0.32,-0.363,-0.167,-45.17,117.6,0
303830.0,0.276,0.207,0.07,35.96,-75.82,0
303835.0,-0.212,-0.282,-0.04,-52.52,100.76,0
303840.0,0.152,0.315,0.075,61.73,-63.82,0
303845.0,-0.322,-0.231,-0.074,-34.98,102.9,0
303850.0,0.341,0.133,0.087,20.65,-75.75,0
303855.0,-0.246,-0.291,-0.213,-41.87,130.89,0
303860.0,0.164,0.276,0.06,57.72,-69.8,0
303865.0,-0.313,-0.33,-0.11,-44.84,109.34,0
303870.0,0.221,0.271,-0.021,50.69,-95.46,0
303875.0,-0.258,-0.356,-0.198,-47.59,127.59,0
303880.0,0.135,0.3,0.118,59.17,-48.92,0
303885.0,-0.358,-0.365,-0.126,-43.89,109.45,0
303890.0,0.24,0.322,-0.038,52.89,-98.96,0
303895.0,-0.248,-0.191,-0.15,-33.31,121.24,0
303900.0,0.176,0.228,0.156,44.17,-48.4,0
303905.0,-0.298,-0.382,-0.122,-49.87,112.19,0
303910.0,0.243,0.135,0.015,29.02,-86.52,0
303915.0,-0.282,-0.138,-0.189,-22.15,123.84,0
303920.0,0.121,0.336,0.02,70.01,-80.8,0
303925.0,-0.351,-0.356,-0.184,-41.92,117.66,0
303930.0,0.257,0.209,0.132,35.89,-62.81,0
303935.0,-0.164,-0.241,-0.174,-45.17,136.71,0
303940.0,0.082,0.305,0.06,71.5,-53.81,0
303945.0,-0.279,-0.262,-0.129,-40.49,114.78,0
303950.0,0.243,0.168,0.039,34.42,-80.94,0
303955.0,-0.136,-0.282,-0.194,-50.01,145.0,0
303960.0,0.106,0.255,0.091,61.17,-49.32,0
303965.0,-0.236,-0.284,-0.11,-47.49,114.93,0
303970.0,0.154,0.185,0.087,46.33,-60.68,0
303975.0,-0.274,-0.207,-0.229,-30.11,129.9,0
303980.0,0.121,0.322,0.051,67.86,-67.22,0
303985.0,-0.248,-0.392,-0.126,-54.6,117.02,0
303990.0,0.152,0.247,0.003,58.47,-88.95,0
303995.0,-0.131,-0.334,-0.124,-61.67,133.51,0
304000.0,0.135,0.343,0.173,57.43,-38.01,0
304005.0,-0.191,-0.265,-0.069,-52.58,109.91,0
304010.0,0.224,0.221,-0.033,44.37,-98.42,0
304015.0,-0.057,-0.332,0.017,-79.91,73.11,0
304020.0,0.082,0.288,0.127,62.25,-32.9,0
304025.0,-0.265,-0.198,-0.208,-30.44,128.14,0
304030.0,0.166,0.204,0.197,38.44,-40.19,0
304035.0,-0.248,-0.303,0.12,-47.73,64.16,0
304040.0,0.051,0.274,0.134,62.28,-20.86,0
304045.0,-0.255,-0.274,-0.007,-47.07,91.52,0
304050.0,0.31,0.319,0.087,44.79,-74.38,0
304055.0,-0.131,-0.241,0.017,-61.31,82.52,0
304060.0,0.07,0.291,0.079,69.94,-41.55,0
304065.0,-0.198,-0.274,-0.059,-53.04,106.73,0
304070.0,0.09,0.233,0.156,52.34,-29.85,0
304075.0,-0.188,-0.296,0.012,-57.5,86.24,0
304080.0,0.113,0.212,0.091,55.45,-51.16,0
304085.0,-0.327,-0.416,-0.014,-51.78,92.45,0
304090.0,0.336,0.47,0.101,53.26,-73.28,0
304095.0,-0.09,-0.246,-0.019,-69.48,101.77,0
304100.0,0.03,0.233,0.067,72.46,-23.76,0
304105.0,-0.2,-0.421,-0.069,-63.27,109.03,0
304110.0,0.09,0.384,0.111,69.67,-39.01,0
304115.0,-0.057,-0.315,-0.083,-72.27,145.88,0
304120.0,0.255,0.319,-0.014,51.38,-93.14,0
304125.0,-0.377,-0.543,-0.081,-54.58,102.12,0
304130.0,0.305,0.508,0.048,58.73,-81.0,0
304135.0,-0.344,-0.229,-0.043,-33.46,97.08,0
304140.0,0.398,0.307,0.072,37.2,-79.72,0
304145.0,-0.325,-0.473,0.012,-55.53,87.82,0
304150.0,0.374,0.468,0.142,49.44,-69.28,0
304155.0,-0.262,-0.284,-0.004,-47.26,90.96,0
304160.0,0.319,0.346,0.158,44.11,-63.62,0
304165.0,-0.308,-0.488,-0.045,-57.45,98.33,0
304170.0,0.439,0.444,0.17,43.3,-68.79,0
304175.0,-0.368,-0.286,-0.088,-37.14,103.48,0
304180.0,0.341,0.37,0.058,46.9,-80.37,0
304185.0,-0.368,-0.543,-0.074,-55.35,101.35,0
304190.0,0.418,0.523,0.158,49.5,-69.22,0
304195.0,-0.351,-0.392,-0.071,-47.56,101.5,0
304200.0,0.293,0.384,0.115,50.64,-68.52,0
304205.0,-0.308,-0.545,-0.043,-60.3,97.89,0
304210.0,0.346,0.422,0.134,48.7,-68.75,0
304215.0,-0.289,-0.368,-0.028,-51.74,95.6,0
304220.0,0.303,0.42,0.084,53.2,-74.45,0
304225.0,-0.346,-0.478,-0.038,-53.92,96.25,0
304230.0,0.391,0.437,0.096,47.3,-76.19,0
304235.0,-0.416,-0.375,-0.172,-39.82,112.48,0
304240.0,0.384,0.417,0.106,46.34,-74.6,0
304245.0,-0.286,-0.523,0.055,-60.87,79.04,0
304250.0,0.453,0.401,0.19,39.19,-67.32,0
304255.0,-0.365,-0.428,-0.055,-49.18,98.51,0
304260.0,0.372,0.549,0.161,53.57,-66.63,0
304265.0,-0.286,-0.473,-0.028,-58.7,95.65,0
304270.0,0.362,0.405,0.075,47.61,-78.37,0
304275.0,-0.356,-0.447,-0.174,-48.44,116.11,0
304280.0,0.339,0.456,0.094,52.38,-74.52,0
304285.0,-0.38,-0.485,-0.033,-51.84,94.98,0
304290.0,0.425,0.425,0.103,44.17,-76.32,0
304295.0,-0.385,-0.38,-0.148,-42.67,111.06,0
304300.0,0.386,0.386,0.144,43.13,-69.56,0
304305.0,-0.334,-0.519,-0.047,-56.94,98.09,0
304310.0,0.365,0.379,0.127,44.46,-70.77,0
304315.0,-0.329,-0.399,-0.119,-48.71,109.91,0
304320.0,0.398,0.391,0.197,41.36,-63.72,0
304325.0,-0.42,-0.48,-0.15,-47.09,109.69,0
304330.0,0.329,0.427,0.089,51.41,-74.86,0
304335.0,-0.358,-0.346,-0.129,-42.29,109.79,0
304340.0,0.31,0.365,0.111,47.96,-70.36,0
304345.0,-0.396,-0.5,-0.091,-50.85,102.87,0
304350.0,0.396,0.343,0.137,39.33,-70.93,0
304355.0,-0.353,-0.31,-0.141,-39.21,111.73,0
304360.0,0.269,0.408,0.075,55.6,-74.5,0
304365.0,-0.365,-0.461,-0.062,-51.22,99.61,0
304370.0,0.286,0.331,0.01,49.19,-88.0,0
304375.0,-0.31,-0.401,-0.198,-47.46,122.58,0
304380.0,0.298,0.322,0.087,46.05,-73.79,0
304385.0,-0.44,-0.461,-0.04,-46.26,95.24,0
304390.0,0.339,0.394,0.065,48.78,-79.12,0
304395.0,-0.286,-0.227,-0.105,-36.61,110.13,0
304400.0,0.231,0.291,0.101,49.08,-66.37,0
304405.0,-0.368,-0.476,-0.184,-49.15,116.57,0
304410.0,0.295,0.283,-0.031,43.65,-95.94,0
304415.0,-0.289,-0.186,-0.112,-30.97,111.22,0
304420.0,0.24,0.259,0.127,43.65,-62.1,0
304425.0,-0.38,-0.428,-0.079,-47.8,101.7,0
304430.0,0.343,0.291,0.065,39.75,-79.27,0
304435.0,-0.286,-0.227,-0.098,-36.83,108.85,0
304440.0,0.24,0.334,0.089,52.47,-69.69,0
304445.0,-0.351,-0.432,-0.055,-50.6,98.85,0
304450.0,0.36,0.19,0.099,26.98,-74.69,0
304455.0,-0.265,-0.286,-0.16,-42.79,121.14,0
304460.0,0.248,0.341,0.084,52.51,-71.22,0
304465.0,-0.341,-0.368,-0.057,-46.74,99.49,0
304470.0,0.279,0.238,0.123,38.01,-66.27,0
304475.0,-0.27,-0.234,-0.148,-37.24,118.77,0
304480.0,0.219,0.245,0.07,46.86,-72.3,0
304485.0,-0.385,-0.361,-0.124,-41.75,107.89,0
304490.0,0.36,0.236,0.06,32.82,-80.5,0
304495.0,-0.274,-0.282,-0.201,-39.64,126.19,0
304500.0,0.13,0.386,0.06,69.62,-65.17,0
304505.0,-0.296,-0.294,-0.112,-42.86,110.75,0
304510.0,0.257,0.164,0.079,31.31,-72.84,0
304515.0,-0.21,-0.313,-0.136,-51.36,122.97,0
304520.0,0.116,0.348,0.087,67.43,-53.23,0
304525.0,-0.284,-0.344,-0.064,-49.75,102.75,0
304530.0,0.281,0.24,0.072,39.63,-75.59,0
304535.0,-0.246,-0.33,-0.172,-47.7,125.0,0
304540.0,0.152,0.382,0.079,65.82,-62.38,0
304545.0,-0.346,-0.27,-0.105,-36.7,106.86,0
304550.0,0.219,0.3,0.024,53.74,-83.65,0
304555.0,-0.198,-0.322,-0.208,-48.33,136.43,0
304560.0,0.137,0.212,0.091,52.04,-56.38,0
304565.0,-0.308,-0.277,-0.069,-41.26,102.64,0
304570.0,0.207,0.226,0.032,47.2,-81.33,0
304575.0,-0.224,-0.193,-0.208,-32.27,132.85,0
304580.0,0.13,0.271,0.077,60.86,-59.4,0
304585.0,-0.31,-0.298,-0.103,-42.4,108.29,0
304590.0,0.188,0.209,-0.047,47.21,-104.2,0
304595.0,-0.289,-0.227,-0.182,-33.6,122.16,0
304600.0,0.145,0.312,0.091,61.27,-57.71,0
304605.0,-0.26,-0.337,-0.126,-49.35,115.94,0
304610.0,0.192,0.197,0.096,42.5,-63.45,0
304615.0,-0.179,-0.193,-0.134,-40.87,126.81,0
304620.0,0.142,0.331,0.132,59.63,-47.12,0
304625.0,-0.317,-0.325,-0.174,-41.88,118.78,0
304630.0,0.169,0.207,-0.095,46.88,-119.5,0
304635.0,-0.222,-0.243,0.072,-46.22,71.96,0
304640.0,0.087,0.367,0.058,74.1,-56.42,0
304645.0,-0.298,-0.363,-0.007,-50.58,91.3,0
304650.0,0.377,0.099,0.154,13.68,-67.82,0
304655.0,-0.236,-0.301,0.06,-50.99,75.68,0
304660.0,0.109,0.307,0.106,63.74,-45.79,0
304665.0,-0.267,-0.219,0.024,-39.27,84.79,0
304670.0,0.092,0.145,0.139,40.9,-33.43,0
304675.0,-0.186,-0.248,0.034,-52.72,79.65,0
304680.0,0.058,0.25,0.089,66.93,-33.28,0
304685.0,-0.253,-0.222,0.02,-41.17,85.58,0
304690.0,0.377,0.307,0.166,36.75,-66.28,0
304695.0,-0.219,-0.306,0.084,-52.45,69.0,0
304700.0,0.08,0.255,0.108,62.16,-36.48,0
304705.0,-0.26,-0.227,0.06,-40.33,76.95,0
304710.0,0.118,0.346,0.012,71.01,-84.03,0
304715.0,-0.138,-0.289,-0.047,-63.21,109.0,0
304720.0,0.391,0.149,0.087,20.44,-77.52,0
304725.0,-0.344,-0.308,-0.021,-41.8,93.52,0
304730.0,0.343,0.396,0.048,48.79,-81.99,0
304735.0,-0.322,-0.207,0.055,-32.39,80.23,0
304740.0,0.403,0.166,0.185,20.53,-65.38,0
304745.0,-0.317,-0.358,-0.014,-48.43,92.52,0
304750.0,0.389,0.391,0.091,44.4,-76.77,0
304755.0,-0.181,-0.291,0.082,-55.7,65.68,0
304760.0,0.379,0.257,0.197,31.03,-62.58,0
304765.0,-0.325,-0.418,-0.012,-52.15,92.04,0
304770.0,0.441,0.451,0.197,43.02,-65.98,0
304775.0,-0.198,-0.368,0.103,-58.76,62.41,0
304780.0,0.291,0.267,0.094,41.12,-72.12,0
304785.0,-0.351,-0.444,-0.131,-49.86,110.51,0
304790.0,0.37,0.453,0.125,49.28,-71.33,0
304795.0,-0.385,-0.246,-0.1,-31.73,104.6,0
304800.0,0.315,0.233,0.0,36.54,-89.93,0
304805.0,-0.358,-0.416,-0.074,-48.66,101.65,0
304810.0,0.315,0.394,0.096,50.11,-73.0,0
304815.0,-0.315,-0.318,-0.153,-42.2,115.88,0
304820.0,0.295,0.319,0.029,47.08,-84.37,0
304825.0,-0.284,-0.521,0.024,-61.32,85.1,0
304830.0,0.406,0.473,0.163,47.23,-68.08,0
304835.0,-0.334,-0.363,-0.052,-47.02,98.89,0
304840.0,0.384,0.372,0.127,42.6,-71.66,0
304845.0,-0.394,-0.557,-0.11,-53.7,105.56,0
304850.0,0.324,0.456,0.015,54.55,-87.39,0
304855.0,-0.349,-0.334,-0.107,-42.51,107.11,0
304860.0,0.276,0.348,0.06,50.91,-77.7,0
304865.0,-0.382,-0.488,-0.095,-51.07,104.01,0
304870.0,0.451,0.439,0.082,43.76,-79.72,0
304875.0,-0.387,-0.351,-0.052,-41.96,97.69,0
304880.0,0.293,0.379,0.118,50.21,-68.12,0
304885.0,-0.315,-0.423,-0.062,-52.79,101.11,0
304890.0,0.403,0.42,0.168,43.87,-67.38,0
304895.0,-0.284,-0.375,-0.024,-52.77,94.74,0
304900.0,0.386,0.396,0.19,42.61,-63.87,0
304905.0,-0.291,-0.523,0.02,-60.86,86.16,0
304910.0,0.382,0.492,0.125,50.76,-71.88,0
304915.0,-0.356,-0.411,-0.086,-48.31,103.56,0
304920.0,0.339,0.444,0.115,51.14,-71.19,0
304925.0,-0.322,-0.504,-0.057,-57.02,100.04,0
304930.0,0.324,0.429,0.058,52.52,-79.88,0
304935.0,-0.291,-0.349,-0.076,-49.2,104.67,0
304940.0,0.255,0.331,0.127,49.32,-63.45,0
304945.0,-0.43,-0.432,-0.143,-43.66,108.43,0
304950.0,0.382,0.425,0.0,48.05,-89.94,0
304955.0,-0.351,-0.358,-0.138,-43.52,111.53,0
304960.0,0.329,0.305,0.111,41.31,-71.43,0
304965.0,-0.399,-0.579,-0.141,-53.83,109.45,0
304970.0,0.367,0.496,0.146,51.47,-68.26,0
304975.0,-0.296,-0.248,-0.059,-39.42,101.36,0
304980.0,0.339,0.307,0.13,40.29,-69.04,0
304985.0,-0.315,-0.557,-0.033,-60.37,96.0,0
304990.0,0.317,0.408,0.084,51.2,-75.12,0
304995.0,-0.248,-0.327,-0.122,-49.82,116.14,0
305000.0,0.334,0.403,0.125,48.52,-69.48,0
305005.0,-0.394,-0.519,-0.086,-52.13,102.28,0
305010.0,0.415,0.389,0.103,42.26,-76.02,0
305015.0,-0.363,-0.262,-0.201,-32.33,118.94,0
305020.0,0.353,0.362,0.106,44.53,-73.32,0
305025.0,-0.401,-0.531,-0.062,-52.58,98.76,0
305030.0,0.339,0.336,0.089,43.83,-75.27,0
305035.0,-0.363,-0.325,-0.146,-39.7,111.86,0
305040.0,0.228,0.401,0.075,59.05,-71.91,0
305045.0,-0.339,-0.421,-0.153,-48.51,114.27,0
305050.0,0.238,0.247,0.046,45.6,-79.09,0
305055.0,-0.25,-0.267,-0.112,-44.25,114.12,0
305060.0,0.243,0.413,0.144,55.63,-59.32,0
305065.0,-0.396,-0.468,-0.045,-49.57,96.49,0
305070.0,0.346,0.377,0.07,46.89,-78.58,0
305075.0,-0.294,-0.301,-0.076,-44.77,104.56,0
305080.0,0.255,0.372,0.06,54.86,-76.69,0
305085.0,-0.401,-0.473,-0.165,-47.49,112.33,0
305090.0,0.319,0.312,0.051,43.99,-80.98,0
305095.0,-0.298,-0.27,-0.138,-39.35,114.9,0
305100.0,0.267,0.372,0.113,52.09,-67.05,0
305105.0,-0.394,-0.38,-0.057,-43.65,98.24,0
305110.0,0.346,0.259,0.063,36.44,-79.73,0
305115.0,-0.255,-0.258,-0.11,-42.85,113.27,0
305120.0,0.19,0.279,0.077,53.64,-67.95,0
305125.0,-0.31,-0.404,-0.11,-50.81,109.48,0
305130.0,0.36,0.281,0.005,37.96,-89.17,0
305135.0,-0.298,-0.243,-0.129,-36.83,113.37,0
305140.0,0.245,0.374,0.101,54.69,-67.62,0
305145.0,-0.31,-0.444,0.003,-55.08,89.48,0
305150.0,0.3,0.219,0.091,34.88,-73.07,0
305155.0,-0.167,-0.272,-0.167,-49.05,135.1,0
305160.0,0.204,0.312,0.166,49.87,-51.0,0
305165.0,-0.339,-0.313,-0.026,-42.61,94.37,0
305170.0,0.336,0.231,-0.002,34.46,-90.34,0
305175.0,-0.284,-0.241,-0.158,-36.57,119.03,0
305180.0,0.154,0.305,0.091,59.55,-59.35,0
305185.0,-0.291,-0.315,-0.045,-46.93,98.8,0
305190.0,0.262,0.236,0.051,41.44,-79.05,0
305195.0,-0.282,-0.286,-0.174,-40.86,121.77,0
305200.0,0.212,0.307,0.07,54.05,-71.74,0
305205.0,-0.416,-0.392,-0.15,-41.55,109.9,0
305210.0,0.164,-0.09,0.075,-26.6,-65.5,0
305215.0,-0.229,-0.219,-0.143,-39.09,122.04,0
305220.0,0.104,0.236,0.099,58.7,-46.51,0
305225.0,-0.27,-0.294,-0.126,-44.6,115.14,0
305230.0,0.192,0.164,-0.047,39.54,-103.86,0
305235.0,-0.212,-0.267,0.075,-49.92,70.62,0
305240.0,0.099,0.353,0.003,74.3,-88.39,0
305245.0,-0.329,-0.356,-0.033,-47.06,95.74,0
305250.0,0.252,0.142,0.046,28.99,-79.69,0
305255.0,-0.303,-0.241,0.034,-38.31,83.62,0
305260.0,0.123,0.3,-0.014,67.58,-96.47,0
305265.0,-0.248,-0.349,0.024,-54.44,84.4,0
305270.0,0.171,0.171,0.182,34.36,-43.15,0
305275.0,-0.191,-0.078,-0.036,-21.95,100.56,0
305280.0,0.13,0.018,-0.004,7.71,-91.93,0
305285.0,-0.322,-0.104,0.01,-17.95,88.23,0
305290.0,0.245,0.207,0.053,39.5,-77.79,0
305295.0,-0.229,-0.112,0.029,-25.82,82.75,0
305300.0,0.068,0.087,0.106,34.71,-32.74,0
305305.0,-0.303,-0.203,-0.021,-33.7,93.99,0
305310.0,0.164,0.18,0.087,44.25,-62.13,0
305315.0,-0.219,-0.109,0.01,-26.46,87.4,0
305320.0,0.315,0.118,0.139,18.96,-66.12,0
305325.0,-0.274,-0.071,-0.026,-14.44,95.4,0
305330.0,0.255,0.245,0.034,43.64,-82.42,0
305335.0,-0.217,-0.234,0.017,-47.05,85.48,0
305340.0,0.329,0.185,0.058,29.01,-80.02,0
305345.0,-0.282,-0.272,-0.088,-42.68,107.39,0
305350.0,0.317,0.291,0.103,41.07,-71.94,0
305355.0,-0.313,-0.181,0.058,-29.66,79.52,0
305360.0,0.415,0.173,0.053,22.49,-82.72,0
305365.0,-0.294,-0.219,-0.052,-36.35,100.1,0
305370.0,0.307,0.269,0.137,38.64,-66.0,0
305375.0,-0.286,-0.258,0.022,-41.9,85.62,0
305380.0,0.355,0.264,0.063,36.22,-80.0,0
305385.0,-0.272,-0.282,0.048,-45.55,79.93,0
305390.0,0.353,0.317,0.158,39.33,-65.83,0
305395.0,-0.243,-0.277,0.017,-48.63,85.96,0
305400.0,0.379,0.197,0.07,27.08,-79.57,0
305405.0,-0.344,-0.318,-0.064,-42.24,100.58,0
305410.0,0.355,0.451,0.113,50.42,-72.37,0
305415.0,-0.317,-0.341,-0.004,-47.08,90.79,0
305420.0,0.305,0.295,0.094,42.79,-72.91,0
305425.0,-0.325,-0.432,-0.095,-51.96,106.37,0
305430.0,0.298,0.473,0.027,57.67,-84.87,0
305435.0,-0.315,-0.272,-0.055,-40.39,99.84,0
305440.0,0.293,0.216,0.063,35.83,-77.93,0
305445.0,-0.325,-0.454,-0.115,-52.83,109.43,0
305450.0,0.353,0.494,0.084,53.71,-76.58,0
305455.0,-0.265,-0.32,0.01,-50.37,87.84,0
305460.0,0.346,0.291,0.065,39.56,-79.35,0
305465.0,-0.375,-0.459,-0.057,-50.42,98.65,0
305470.0,0.47,0.485,0.19,43.7,-68.05,0
305475.0,-0.301,-0.318,-0.045,-46.24,98.53,0
305480.0,0.329,0.341,0.055,45.62,-80.43,0
305485.0,-0.265,-0.531,0.029,-63.34,83.72,0
305490.0,0.386,0.477,0.192,47.89,-63.59,0
305495.0,-0.284,-0.289,-0.014,-45.45,92.82,0
305500.0,0.441,0.391,0.17,39.57,-68.9,0
305505.0,-0.308,-0.576,0.06,-61.43,78.93,0
305510.0,0.456,0.489,0.139,45.75,-73.01,0
305515.0,-0.265,-0.401,-0.033,-56.38,97.13,0
305520.0,0.367,0.41,0.13,46.49,-70.55,0
305525.0,-0.353,-0.492,-0.009,-54.32,91.49,0
305530.0,0.432,0.425,0.137,43.14,-72.42,0
305535.0,-0.286,-0.389,-0.002,-53.67,90.4,0
305540.0,0.351,0.398,0.113,47.25,-72.14,0
305545.0,-0.337,-0.49,-0.024,-55.44,94.0,0
305550.0,0.415,0.449,0.127,45.93,-72.95,0
305555.0,-0.298,-0.411,-0.074,-53.21,103.9,0
305560.0,0.339,0.453,0.108,51.91,-72.29,0
305565.0,-0.349,-0.509,-0.033,-55.48,95.43,0
305570.0,0.401,0.444,0.118,46.73,-73.63,0
305575.0,-0.392,-0.397,-0.1,-44.45,104.34,0
305580.0,0.348,0.427,0.108,49.52,-72.74,0
305585.0,-0.418,-0.504,-0.126,-49.11,106.84,0
305590.0,0.365,0.422,0.053,48.87,-81.72,0
305595.0,-0.313,-0.341,-0.059,-47.01,100.77,0
305600.0,0.341,0.353,0.144,43.63,-67.09,0
305605.0,-0.317,-0.492,-0.019,-57.14,93.38,0
305610.0,0.418,0.432,0.077,45.48,-79.55,0
305615.0,-0.392,-0.325,-0.117,-38.46,106.62,0
305620.0,0.36,0.415,0.194,45.41,-61.65,0
305625.0,-0.303,-0.471,-0.036,-57.05,96.68,0
305630.0,0.403,0.331,0.087,38.78,-77.88,0
305635.0,-0.322,-0.382,-0.071,-49.18,102.5,0
305640.0,0.324,0.413,0.108,50.37,-71.55,0
305645.0,-0.416,-0.48,-0.17,-46.94,112.2,0
305650.0,0.37,0.422,0.065,48.37,-80.02,0
305655.0,-0.298,-0.306,-0.04,-45.43,97.69,0
305660.0,0.3,0.374,0.106,49.63,-70.6,0
305665.0,-0.404,-0.473,-0.143,-47.85,109.54,0
305670.0,0.386,0.417,0.144,45.35,-69.56,0
305675.0,-0.377,-0.344,-0.105,-41.28,105.54,0
305680.0,0.315,0.35,0.072,47.35,-77.07,0
305685.0,-0.344,-0.504,-0.074,-55.11,102.12,0
305690.0,0.351,0.398,0.096,47.62,-74.66,0
305695.0,-0.315,-0.322,-0.098,-44.34,107.24,0
305700.0,0.26,0.365,0.144,50.87,-60.97,0
305705.0,-0.399,-0.483,-0.117,-49.27,106.34,0
305710.0,0.324,0.322,0.067,44.17,-78.25,0
305715.0,-0.274,-0.229,-0.179,-34.94,123.14,0
305720.0,0.219,0.207,0.065,42.17,-73.45,0
305725.0,-0.392,-0.382,-0.103,-43.35,104.67,0
305730.0,0.365,0.293,0.132,37.05,-70.1,0
305735.0,-0.337,-0.212,-0.155,-29.79,114.76,0
305740.0,0.209,0.322,-0.026,56.76,-97.07,0
305745.0,-0.306,-0.454,0.087,-55.03,74.18,0
305750.0,0.231,0.259,0.07,47.1,-73.17,0
305755.0,-0.231,-0.2,-0.146,-36.23,122.2,0
305760.0,0.197,0.338,0.053,58.88,-74.94,0
305765.0,-0.404,-0.397,-0.047,-44.29,96.71,0
305770.0,0.355,0.245,0.096,33.66,-74.85,0
305775.0,-0.332,-0.248,-0.134,-34.74,111.94,0
305780.0,0.245,0.341,0.096,52.31,-68.58,0
305785.0,-0.368,0.269,0.008,36.18,88.82,0
305790.0,0.264,0.262,0.01,44.71,-87.84,0
305795.0,-0.248,-0.277,-0.134,-44.5,118.32,0
305800.0,0.145,0.343,0.07,64.93,-64.22,0
305805.0,-0.346,-0.399,-0.158,-46.36,114.48,0
305810.0,0.327,0.303,0.039,42.61,-83.24,0
305815.0,-0.363,-0.222,-0.237,-27.11,123.1,0
305820.0,0.25,0.288,0.115,46.31,-65.23,0
305825.0,-0.219,0.135,-0.074,30.25,108.6,0
305830.0,0.31,0.267,-0.026,40.62,-94.79,0
305835.0,-0.195,-0.279,0.048,-54.22,76.12,0
305840.0,0.181,0.324,-0.012,60.83,-93.67,0
305845.0,-0.365,-0.387,0.01,-46.64,88.44,0
305850.0,0.283,0.281,0.027,44.62,-84.61,0
305855.0,-0.291,-0.198,0.027,-34.09,84.75,0
305860.0,0.204,0.281,-0.047,53.24,-103.07,0
305865.0,-0.179,0.054,-0.002,16.69,90.64,0
305870.0,0.214,0.224,0.034,45.89,-81.0,0
305875.0,-0.241,0.042,0.111,8.92,65.35,0
305880.0,0.128,-0.152,0.091,-44.11,-54.45,0
305885.0,-0.404,0.003,0.039,0.46,84.52,0
305890.0,0.173,0.066,0.077,19.06,-66.04,0
305895.0,-0.186,0.082,0.048,23.2,75.43,0
305900.0,0.116,0.044,-0.045,19.48,-111.26,0
305905.0,-0.284,-0.045,-0.04,-8.84,98.08,0
305910.0,0.219,0.03,0.12,6.76,-61.24,0
305915.0,-0.198,-0.035,0.024,-9.97,82.98,0
305920.0,0.212,-0.049,-0.043,-12.89,-101.41,0
305925.0,-0.222,0.015,-0.021,3.92,95.45,0
305930.0,0.231,0.104,0.12,21.75,-62.51,0
305935.0,-0.15,-0.052,0.101,-15.99,56.04,0
305940.0,0.355,-0.023,0.043,-3.69,-83.02,0
305945.0,-0.191,-0.066,-0.004,-19.14,91.32,0
305950.0,0.214,0.157,0.036,35.79,-80.37,0
305955.0,-0.243,-0.081,-0.021,-18.25,94.97,0
305960.0,0.224,0.013,0.015,3.28,-86.22,0
305965.0,-0.346,-0.1,-0.107,-15.38,107.23,0
305970.0,0.348,0.121,-0.009,19.1,-91.51,0
305975.0,-0.358,-0.136,-0.059,-20.48,99.43,0
305980.0,0.329,0.154,0.091,24.29,-74.48,0
305985.0,-0.253,-0.088,-0.045,-18.86,100.11,0
305990.0,0.288,0.202,0.115,33.05,-68.2,0
305995.0,-0.195,-0.222,0.043,-47.94,77.45,0
306000.0,0.288,0.128,0.032,23.78,-83.76,0
306005.0,-0.224,-0.145,-0.067,-31.84,106.56,0
306010.0,0.374,0.274,0.142,34.37,-69.28,0
306015.0,-0.282,-0.255,0.034,-41.99,83.13,0
306020.0,0.341,0.209,0.063,31.11,-79.59,0
306025.0,-0.26,-0.188,0.022,-35.81,85.18,0
306030.0,0.3,0.307,0.063,45.06,-78.21,0
306035.0,-0.215,-0.306,-0.028,-54.7,97.52,0
306040.0,0.394,0.152,0.106,20.42,-74.96,0
306045.0,-0.255,-0.284,0.02,-47.97,85.62,0
306050.0,0.362,0.425,0.108,48.31,-73.39,0
306055.0,-0.277,-0.279,0.053,-44.74,79.15,0
306060.0,0.391,0.269,0.115,33.41,-73.58,0
306065.0,-0.262,-0.353,0.01,-53.39,87.82,0
306070.0,0.432,0.37,0.209,37.61,-64.21,0
306075.0,-0.267,-0.353,0.077,-51.81,73.92,0
306080.0,0.331,0.279,0.07,39.45,-78.1,0
306085.0,-0.351,-0.327,-0.045,-42.75,97.32,0
306090.0,0.403,0.437,0.125,45.97,-72.79,0
306095.0,-0.317,-0.26,-0.004,-39.32,90.79,0
306100.0,0.394,0.183,0.094,24.32,-76.6,0
306105.0,-0.253,-0.397,0.027,-57.34,83.96,0
306110.0,0.353,0.463,0.146,50.47,-67.46,0
306115.0,-0.265,-0.289,0.046,-47.06,80.17,0
306120.0,0.406,0.283,0.206,31.91,-63.04,0
306125.0,-0.286,-0.442,0.008,-57.06,88.48,0
306130.0,0.374,0.468,0.106,50.24,-74.23,0
306135.0,-0.265,-0.31,-0.071,-48.53,105.1,0
306140.0,0.348,0.262,0.161,34.33,-65.21,0
306145.0,-0.27,-0.488,0.005,-61.05,88.9,0
306150.0,0.379,0.444,0.055,49.19,-81.68,0
306155.0,-0.308,-0.229,-0.04,-36.4,97.46,0
306160.0,0.343,0.293,0.132,38.53,-68.96,0
306165.0,-0.344,-0.488,-0.038,-54.65,96.29,0
306170.0,0.418,0.513,0.194,48.1,-65.04,0
306175.0,-0.325,-0.33,-0.074,-44.7,102.81,0
306180.0,0.382,0.334,0.077,40.6,-78.59,0
306185.0,-0.442,-0.54,-0.057,-50.48,97.36,0
306190.0,0.307,0.566,0.079,60.71,-75.52,0
306195.0,-0.313,-0.418,-0.148,-50.39,115.34,0
306200.0,0.31,0.362,0.084,48.46,-74.8,0
306205.0,-0.365,-0.581,-0.146,-55.9,111.73,0
306210.0,0.401,0.453,0.075,48.04,-79.45,0
306215.0,-0.358,-0.284,-0.021,-38.37,93.38,0
306220.0,0.343,0.334,0.12,42.53,-70.72,0
306225.0,-0.385,-0.552,-0.095,-54.34,103.93,0
306230.0,0.408,0.439,0.125,45.82,-72.98,0
306235.0,-0.339,-0.365,-0.057,-46.75,99.55,0
306240.0,0.343,0.391,0.091,47.75,-75.1,0
306245.0,-0.358,-0.459,-0.026,-51.95,94.14,0
306250.0,0.415,0.401,0.154,42.15,-69.69,0
306255.0,-0.334,-0.368,-0.091,-46.73,105.16,0
306260.0,0.379,0.379,0.13,43.41,-71.12,0
306265.0,-0.341,-0.502,0.036,-55.63,83.93,0
306270.0,0.372,0.425,0.106,47.67,-74.13,0
306275.0,-0.294,-0.332,-0.103,-46.87,109.26,0
306280.0,0.329,0.365,0.106,46.55,-72.18,0
306285.0,-0.413,-0.509,-0.103,-50.09,103.94,0
306290.0,0.37,0.422,0.079,48.16,-77.88,0
306295.0,-0.356,-0.428,-0.131,-48.44,110.25,0
306300.0,0.327,0.396,0.12,48.69,-69.81,0
306305.0,-0.377,-0.531,-0.138,-52.86,110.15,0
306310.0,0.427,0.403,0.118,42.3,-74.59,0
306315.0,-0.344,-0.361,-0.074,-45.72,102.12,0
306320.0,0.288,0.398,0.065,53.43,-77.28,0
306325.0,-0.248,-0.478,0.02,-62.5,85.49,0
306330.0,0.358,0.31,0.185,37.57,-62.68,0
306335.0,-0.327,-0.296,-0.117,-40.44,109.67,0
306340.0,0.307,0.41,0.065,52.55,-78.05,0
306345.0,-0.351,-0.435,0.029,-51.0,85.26,0
306350.0,0.374,0.382,0.103,44.49,-74.57,0
306355.0,-0.325,-0.394,-0.167,-47.19,117.25,0
306360.0,0.26,0.48,0.094,60.09,-70.13,0
306365.0,-0.394,-0.461,-0.115,-48.34,106.2,0
306370.0,0.355,0.379,0.089,45.99,-75.94,0
306375.0,-0.31,-0.392,-0.155,-48.47,116.58,0
306380.0,0.248,0.348,0.096,52.65,-68.77,0
306385.0,-0.317,0.326,-0.038,45.6,96.81,0
306390.0,0.319,0.341,0.082,45.95,-75.63,0
306395.0,-0.322,-0.303,-0.098,-42.0,106.88,0
306400.0,0.295,0.382,0.13,49.78,-66.3,0
306405.0,-0.353,-0.423,-0.019,-50.08,93.04,0
306410.0,0.384,0.303,0.151,36.24,-68.51,0
306415.0,-0.246,-0.308,-0.064,-50.5,104.66,0
306420.0,0.283,0.312,0.099,46.12,-70.83,0
306425.0,-0.097,0.262,-0.038,68.27,111.3,0
306430.0,0.315,0.346,-0.024,47.61,-94.28,0
306435.0,-0.289,-0.243,0.108,-38.28,69.47,0
306440.0,0.173,0.307,-0.052,59.5,-106.78,0
306445.0,-0.332,-0.428,0.07,-51.59,78.12,0
306450.0,0.286,0.267,0.01,42.99,-88.0,0
306455.0,-0.334,-0.284,0.06,-39.91,79.78,0
306460.0,0.228,0.329,0.032,54.97,-82.14,0
306465.0,-0.2,0.212,-0.043,45.95,102.04,0
306470.0,0.334,0.269,-0.016,38.84,-92.81,0
306475.0,-0.243,0.168,0.087,33.12,70.41,0
306480.0,0.159,-0.164,0.005,-45.93,-88.13,0
306485.0,-0.365,0.125,0.024,18.9,86.19,0
306490.0,0.274,-0.09,0.055,-17.87,-78.55,0
306495.0,-0.265,0.161,0.084,30.13,72.36,0
306500.0,0.24,-0.181,-0.036,-36.69,-98.4,0
306505.0,-0.124,0.137,-0.033,47.04,105.01,0
306510.0,0.317,-0.054,0.015,-9.69,-87.33,0
306515.0,-0.262,0.077,0.087,15.67,71.74,0
306520.0,0.2,-0.04,-0.064,-10.75,-107.84,0
306525.0,-0.126,0.073,0.0,30.0,89.82,0
306530.0,0.166,-0.035,0.046,-11.49,-74.56,0
306535.0,-0.138,-0.011,0.0,-4.6,89.83,0
306540.0,0.221,-0.104,-0.055,-24.63,-103.88,0
306545.0,-0.203,0.161,-0.024,38.34,96.63,0
306550.0,0.104,0.051,0.02,25.82,-79.34,0
306555.0,-0.138,0.006,0.032,2.29,77.12,0
306560.0,0.288,-0.133,0.008,-24.79,-88.49,0
306565.0,-0.253,0.082,-0.062,17.54,103.75,0
306570.0,0.269,0.042,0.051,8.63,-79.34,0
306575.0,-0.169,0.003,0.051,1.06,73.31,0
306580.0,0.334,-0.119,0.082,-19.08,-76.23,0
306585.0,-0.152,0.01,0.063,3.63,67.64,0
306590.0,0.257,0.188,0.087,34.66,-71.39,0
306595.0,-0.183,-0.061,0.067,-17.44,69.81,0
306600.0,0.365,-0.121,0.063,-18.13,-80.26,0
306605.0,-0.231,-0.042,0.015,-10.32,86.35,0
306610.0,0.212,0.202,0.058,42.63,-74.71,0
306615.0,-0.231,-0.021,-0.024,-5.08,95.81,0
306620.0,0.319,-0.002,0.125,-0.25,-68.64,0
306625.0,-0.282,-0.133,-0.059,-24.84,101.92,0
306630.0,0.291,0.197,0.036,33.95,-82.88,0
306635.0,-0.238,-0.083,0.065,-18.54,74.74,0
306640.0,0.3,0.142,0.115,23.84,-68.99,0
306645.0,-0.258,-0.15,-0.129,-27.5,116.58,0
306650.0,0.272,0.207,0.072,36.35,-75.1,0
306655.0,-0.231,-0.148,-0.019,-32.45,94.64,0
306660.0,0.312,0.066,0.017,11.84,-86.85,0
306665.0,-0.255,-0.289,-0.057,-47.84,102.6,0
306670.0,0.279,0.334,0.113,47.98,-67.94,0
306675.0,-0.246,-0.136,0.024,-28.78,84.34,0
306680.0,0.327,0.195,-0.031,30.71,-95.37,0
306685.0,-0.332,-0.272,-0.064,-38.83,100.96,0
306690.0,0.274,0.331,0.079,49.28,-73.83,0
306695.0,-0.296,-0.272,0.012,-42.57,87.61,0
306700.0,0.334,0.173,-0.007,27.43,-91.16,0
306705.0,-0.315,-0.267,-0.021,-40.24,93.84,0
306710.0,0.353,0.281,0.132,36.71,-69.48,0
306715.0,-0.317,-0.272,-0.069,-39.94,102.27,0
306720.0,0.36,0.252,0.051,34.75,-81.99,0
306725.0,-0.277,-0.224,0.017,-38.95,86.45,0
306730.0,0.286,0.324,0.079,47.53,-74.48,0
306735.0,-0.234,-0.27,-0.045,-48.57,100.92,0
306740.0,0.36,0.245,0.149,32.17,-67.54,0
306745.0,-0.334,-0.353,0.041,-46.39,82.99,0
306750.0,0.341,0.353,-0.002,45.98,-90.34,0
306755.0,-0.32,-0.277,-0.055,-40.47,99.7,0
306760.0,0.339,0.279,0.115,37.92,-71.19,0
306765.0,-0.286,-0.341,-0.05,-49.6,99.88,0
306770.0,0.329,0.394,0.094,49.0,-74.09,0
306775.0,-0.284,-0.286,0.053,-44.76,79.41,0
306780.0,0.377,0.255,0.113,32.92,-73.32,0
306785.0,-0.308,-0.349,-0.031,-48.41,95.7,0
306790.0,0.36,0.434,0.127,48.67,-70.53,0
306795.0,-0.313,-0.337,-0.057,-46.65,100.34,0
306800.0,0.348,0.269,0.127,35.97,-69.91,0
306805.0,-0.303,-0.411,-0.047,-53.25,98.9,0
306810.0,0.386,0.475,0.118,49.62,-73.06,0
306815.0,-0.31,-0.313,-0.016,-45.19,93.02,0
306820.0,0.343,0.24,0.127,33.28,-69.66,0
306825.0,-0.358,-0.358,-0.062,-44.59,99.8,0
306830.0,0.394,0.437,0.142,46.23,-70.21,0
306835.0,-0.32,-0.344,-0.079,-46.23,103.81,0
306840.0,0.42,0.334,0.161,36.58,-69.05,0
306845.0,-0.322,-0.55,0.024,-59.55,85.68,0
306850.0,0.386,0.54,0.101,53.49,-75.36,0
306855.0,-0.284,-0.356,-0.047,-51.03,99.49,0
306860.0,0.358,0.382,0.146,44.63,-67.73,0
306865.0,-0.413,-0.545,-0.158,-50.94,110.88,0
306870.0,0.437,0.477,0.041,47.42,-84.62,0
306875.0,-0.351,-0.442,-0.081,-50.82,103.0,0
306880.0,0.279,0.379,0.06,53.06,-77.8,0
306885.0,-0.301,-0.444,-0.064,-55.32,102.06,0
306890.0,0.394,0.501,0.144,50.1,-69.9,0
306895.0,-0.389,-0.397,-0.069,-45.09,100.06,0
306900.0,0.343,0.389,0.029,48.45,-85.15,0
306905.0,-0.339,-0.543,-0.162,-55.29,115.6,0
306910.0,0.274,0.473,0.072,59.06,-75.23,0
306915.0,-0.361,-0.332,-0.182,-39.43,116.73,0
306920.0,0.389,0.408,0.132,44.81,-71.24,0
306925.0,-0.282,-0.48,0.07,-58.87,76.07,0
306930.0,0.329,0.422,0.055,51.69,-80.43,0
306935.0,-0.306,-0.351,-0.177,-44.85,120.05,0
306940.0,0.307,0.334,0.096,46.01,-72.63,0
306945.0,-0.337,-0.461,0.008,-53.87,88.71,0
306950.0,0.36,0.405,0.063,47.97,-80.13,0
306955.0,-0.341,-0.291,-0.057,-40.07,99.49,0
306960.0,0.322,0.341,0.151,43.79,-64.83,0
306965.0,-0.361,-0.48,-0.05,-52.85,97.88,0
306970.0,0.391,0.432,0.089,47.11,-77.19,0
306975.0,-0.253,-0.332,-0.007,-52.69,91.54,0
306980.0,0.394,0.386,0.168,42.07,-66.89,0
306985.0,-0.373,0.35,-0.002,43.25,90.31,0
306990.0,0.391,0.42,0.06,46.69,-81.24,0
306995.0,-0.313,-0.318,-0.126,-43.27,112.03,0
307000.0,0.355,0.429,0.228,45.5,-57.33,0
307005.0,-0.358,-0.507,-0.031,-54.65,94.9,0
307010.0,0.427,0.382,0.166,39.79,-68.81,0
307015.0,-0.308,-0.332,-0.076,-46.3,103.9,0
307020.0,0.322,0.379,0.127,47.61,-68.42,0
307025.0,-0.088,0.367,-0.052,74.47,120.82,0
307030.0,0.36,0.391,-0.074,46.78,-101.59,0
307035.0,-0.274,-0.301,0.087,-46.27,72.48,0
307040.0,0.348,0.331,-0.189,39.92,-118.47,0
307045.0,-0.406,-0.464,-0.045,-48.61,96.34,0
307050.0,0.396,0.329,0.072,39.25,-79.66,0
307055.0,-0.26,-0.303,0.079,-48.12,73.02,0
307060.0,0.238,0.42,-0.138,56.74,-120.19,0
307065.0,-0.097,0.386,-0.009,75.82,95.39,0
307070.0,0.365,0.279,-0.081,36.7,-102.52,0
307075.0,-0.246,0.236,-0.004,43.79,91.02,0
307080.0,0.331,-0.346,-0.119,-44.52,-109.8,0
307085.0,-0.377,0.348,-0.086,41.97,102.81,0
307090.0,0.477,-0.217,-0.153,-23.41,-107.75,0
307095.0,-0.238,0.238,0.063,43.98,75.28,0
307100.0,0.243,-0.27,-0.069,-46.89,-105.87,0
307105.0,-0.09,0.255,0.003,70.52,88.22,0
307110.0,0.281,-0.126,-0.007,-24.14,-91.38,0
307115.0,-0.234,0.233,0.072,43.63,72.82,0
307120.0,0.121,-0.351,-0.069,-68.4,-119.77,0
307125.0,-0.124,0.269,-0.076,61.65,121.67,0
307130.0,0.092,-0.116,-0.009,-51.57,-95.7,0
307135.0,-0.124,0.168,0.106,46.01,49.44,0
307140.0,0.104,-0.255,-0.062,-64.66,-120.76,0
307145.0,-0.092,0.195,-0.019,64.17,101.47,0
307150.0,0.173,-0.15,0.072,-38.61,-67.38,0
307155.0,-0.138,0.188,0.065,50.9,64.75,0
307160.0,0.154,-0.27,-0.062,-58.36,-111.86,0
307165.0,-0.145,0.19,0.012,52.54,85.13,0
307170.0,0.116,-0.059,0.01,-26.89,-85.08,0
307175.0,-0.155,0.123,-0.033,37.87,102.09,0
307180.0,0.178,-0.169,-0.064,-41.77,-109.83,0
307185.0,-0.186,0.097,-0.028,27.21,98.67,0
307190.0,0.228,-0.023,0.02,-5.75,-85.11,0
307195.0,-0.179,-0.002,0.075,-0.45,67.33,0
307200.0,0.248,0.001,0.024,0.2,-84.38,0
307205.0,-0.2,0.063,0.008,17.49,87.83,0
307210.0,0.192,-0.03,0.032,-8.81,-80.7,0
307215.0,-0.104,-0.021,0.024,-10.91,76.87,0
307220.0,0.228,0.051,0.063,12.19,-74.66,0
307225.0,-0.188,0.111,0.07,28.95,69.64,0
307230.0,0.236,0.073,0.082,16.25,-70.85,0
307235.0,-0.274,-0.016,0.072,-3.2,75.25,0
307240.0,0.224,-0.131,-0.028,-30.13,-97.22,0
307245.0,-0.179,0.089,-0.069,25.04,111.13,0
307250.0,0.207,0.058,0.072,14.91,-70.75,0
307255.0,-0.171,0.027,0.113,7.55,56.62,0
307260.0,0.343,-0.04,0.163,-5.98,-64.58,0
307265.0,-0.205,0.02,0.058,5.37,74.23,0
307270.0,0.252,0.101,0.055,21.43,-77.6,0
307275.0,-0.27,-0.066,0.022,-13.74,85.35,0
307280.0,0.312,0.008,0.063,1.45,-78.65,0
307285.0,-0.258,-0.138,-0.057,-27.61,102.49,0
307290.0,0.327,0.228,0.091,33.95,-74.37,0
307295.0,-0.203,-0.15,0.07,-34.99,70.98,0
307300.0,0.31,0.133,0.058,22.81,-79.42,0
307305.0,-0.291,-0.15,-0.059,-26.78,101.54,0
307310.0,0.279,0.255,0.082,41.24,-73.64,0
307315.0,-0.286,-0.176,-0.016,-31.58,93.27,0
307320.0,0.298,0.104,-0.033,19.11,-96.35,0
307325.0,-0.317,-0.1,-0.033,-17.34,95.96,0
307330.0,0.291,0.171,0.084,29.45,-73.84,0
307335.0,-0.224,-0.131,0.034,-29.99,81.39,0
307340.0,0.307,0.166,0.072,27.74,-76.78,0
307345.0,-0.215,-0.198,0.024,-42.5,83.53,0
307350.0,0.293,0.255,0.158,37.4,-61.61,0
307355.0,-0.31,-0.267,-0.043,-40.48,97.83,0
307360.0,0.327,0.259,0.048,38.17,-81.59,0
307365.0,-0.279,-0.227,-0.012,-39.04,92.37,0
307370.0,0.291,0.274,0.029,43.15,-84.28,0
307375.0,-0.306,-0.262,-0.014,-40.64,92.62,0
307380.0,0.322,0.25,0.142,35.4,-66.24,0
307385.0,-0.262,-0.248,0.012,-43.37,87.3,0
307390.0,0.329,0.346,0.072,45.74,-77.62,0
307395.0,-0.2,-0.291,0.082,-53.41,67.77,0
307400.0,0.336,0.18,0.142,26.32,-67.15,0
307405.0,-0.274,-0.272,0.022,-44.67,85.43,0
307410.0,0.331,0.496,0.108,54.93,-71.93,0
307415.0,-0.315,-0.289,0.027,-42.41,85.15,0
307420.0,0.446,0.233,0.149,26.36,-71.56,0
307425.0,-0.373,-0.389,-0.131,-44.59,109.41,0
307430.0,0.367,0.446,0.075,49.97,-78.52,0
307435.0,-0.329,-0.255,-0.021,-37.72,93.67,0
307440.0,0.295,0.197,0.043,33.44,-81.63,0
307445.0,-0.313,-0.265,-0.129,-38.07,112.4,0
307450.0,0.312,0.358,0.106,47.33,-71.29,0
307455.0,-0.238,-0.318,-0.014,-53.05,93.35,0
307460.0,0.348,0.271,0.158,35.36,-65.53,0
307465.0,-0.351,-0.38,-0.069,-46.72,101.13,0
307470.0,0.327,0.434,0.06,52.59,-79.55,0
307475.0,-0.313,-0.303,-0.093,-42.9,106.56,0
307480.0,0.322,0.331,0.101,44.49,-72.58,0
307485.0,-0.346,-0.485,-0.045,-54.26,97.42,0
307490.0,0.334,0.41,0.125,49.02,-69.48,0
307495.0,-0.306,-0.325,-0.083,-45.72,105.27,0
307500.0,0.31,0.355,0.084,47.89,-74.8,0
307505.0,-0.327,-0.432,-0.024,-52.83,94.12,0
307510.0,0.319,0.427,0.048,52.9,-81.4,0
307515.0,-0.322,-0.272,-0.067,-39.58,101.68,0
307520.0,0.432,0.307,0.151,33.88,-70.7,0
307525.0,-0.363,-0.471,-0.009,-52.36,91.45,0
307530.0,0.403,0.451,0.123,46.94,-73.1,0
307535.0,-0.346,-0.353,-0.083,-44.79,103.54,0
307540.0,0.408,0.403,0.166,42.47,-67.91,0
307545.0,-0.375,-0.543,0.058,-55.04,81.23,0
307550.0,0.341,0.463,0.108,52.31,-72.4,0
307555.0,-0.351,-0.425,-0.134,-48.55,110.85,0
307560.0,0.358,0.427,0.096,49.06,-74.95,0
307565.0,-0.373,-0.473,-0.081,-51.14,102.27,0
307570.0,0.339,0.401,0.079,49.05,-76.8,0
307575.0,-0.222,-0.409,-0.04,-61.12,100.3,0
307580.0,0.358,0.355,0.13,43.03,-70.07,0
307585.0,-0.296,0.269,-0.069,41.52,103.13,0
307590.0,0.382,0.446,0.144,47.57,-69.32,0
307595.0,-0.291,-0.432,-0.036,-55.86,96.95,0
307600.0,0.42,0.367,0.106,40.3,-75.87,0
307605.0,-0.353,-0.5,-0.04,-54.55,96.51,0
307610.0,0.415,0.473,0.125,47.46,-73.26,0
307615.0,-0.394,-0.411,-0.148,-44.31,110.59,0
307620.0,0.276,0.403,0.067,54.8,-76.28,0
307625.0,0.02,0.317,0.012,85.74,-58.4,0
307630.0,0.3,0.384,0.055,51.51,-79.53,0
307635.0,-0.353,-0.399,0.094,-47.5,75.14,0
307640.0,0.324,0.379,-0.124,47.53,-110.95,0
307645.0,-0.375,-0.495,0.029,-52.76,85.56,0
307650.0,0.362,0.413,-0.043,48.51,-96.72,0
307655.0,-0.373,-0.353,0.079,-42.86,77.97,0
307660.0,0.334,0.415,-0.138,48.96,-112.53,0
307665.0,-0.073,0.293,-0.014,75.72,100.79,0
307670.0,0.362,0.396,-0.117,46.11,-107.88,0
307675.0,-0.31,0.346,0.039,47.87,82.89,0
307680.0,0.346,-0.301,-0.126,-39.25,-110.1,0
307685.0,-0.38,0.322,-0.047,40.05,97.13,0
307690.0,0.425,-0.339,-0.136,-37.25,-107.76,0
307695.0,-0.337,0.279,0.101,38.41,73.31,0
307700.0,0.334,-0.284,-0.1,-39.18,-106.7,0
307705.0,-0.028,0.322,0.008,84.89,74.73,0
307710.0,0.315,-0.236,-0.028,-36.78,-95.15,0
307715.0,-0.32,0.331,0.149,43.2,65.05,0
307720.0,0.051,-0.291,-0.107,-67.78,-154.48,0
307725.0,-0.011,0.303,0.029,84.12,20.71,0
307730.0,0.054,-0.294,-0.064,-74.09,-140.15,0
307735.0,-0.057,0.295,0.07,73.08,38.98,0
307740.0,0.025,-0.251,-0.067,-74.15,-159.51,0
307745.0,-0.057,0.372,0.032,80.13,60.84,0
307750.0,0.049,-0.284,-0.083,-71.21,-149.64,0
307755.0,-0.006,0.271,0.091,71.35,3.9,0
307760.0,0.161,-0.397,0.024,-67.63,-81.42,0
307765.0,-0.1,0.408,0.02,76.03,78.89,0
307770.0,0.085,-0.193,0.027,-65.28,-72.49,0
307775.0,-0.104,0.247,0.113,58.14,42.75,0
307780.0,0.137,-0.248,-0.079,-57.46,-119.77,0
307785.0,-0.152,0.291,-0.014,62.25,95.24,0
307790.0,0.07,-0.164,-0.093,-54.64,-142.87,0
307795.0,-0.016,0.188,0.015,83.42,46.94,0
307800.0,0.073,-0.306,-0.11,-66.69,-146.44,0
307805.0,-0.159,0.25,-0.045,56.45,105.79,0
307810.0,0.195,-0.16,0.043,-38.62,-77.42,0
307815.0,-0.112,0.214,0.139,50.17,38.7,0
307820.0,0.185,-0.191,-0.036,-45.3,-100.85,0
307825.0,-0.109,0.164,0.029,55.38,75.06,0
307830.0,0.113,-0.128,0.082,-42.55,-54.22,0
307835.0,-0.09,0.173,0.041,60.27,65.46,0
307840.0,0.099,-0.164,-0.038,-57.15,-110.93,0
307845.0,-0.195,0.111,-0.047,28.91,103.66,0
307850.0,0.169,-0.136,-0.05,-37.65,-106.48,0
307855.0,-0.222,0.073,0.015,18.12,86.19,0
307860.0,0.233,-0.114,-0.052,-25.51,-102.63,0
307865.0,-0.219,0.164,-0.05,36.05,102.81,0
307870.0,0.228,-0.04,0.01,-9.88,-87.5,0
307875.0,-0.136,0.125,0.051,40.91,69.5,0
307880.0,0.173,-0.095,-0.055,-27.57,-107.5,0
307885.0,-0.193,0.145,0.01,36.8,87.04,0
307890.0,0.243,-0.021,0.139,-4.22,-60.16,0
307895.0,-0.157,-0.025,0.067,-8.47,66.76,0
307900.0,0.25,-0.09,-0.007,-19.82,-91.55,0
307905.0,-0.224,0.094,-0.079,21.65,109.33,0
307910.0,0.19,0.077,-0.009,22.15,-92.76,0
307915.0,-0.21,0.01,0.027,2.83,82.74,0
307920.0,0.293,-0.1,0.055,-18.48,-79.28,0
307925.0,-0.222,0.054,-0.007,13.57,91.75,0
307930.0,0.2,0.092,0.043,24.2,-77.71,0
307935.0,-0.183,0.003,0.099,0.9,61.75,0
307940.0,0.305,-0.078,0.096,-13.73,-72.5,0
307945.0,-0.258,0.02,-0.031,4.42,96.8,0
307950.0,0.293,0.097,0.077,17.69,-75.28,0
307955.0,-0.159,-0.066,0.142,-17.23,48.38,0
307960.0,0.262,-0.059,0.082,-12.13,-72.66,0
307965.0,-0.159,-0.006,-0.004,-2.26,91.58,0
307970.0,0.303,0.236,0.075,37.07,-76.15,0
307975.0,-0.265,-0.136,0.07,-26.34,75.23,0
307980.0,0.315,0.032,0.027,5.79,-85.14,0
307985.0,-0.21,-0.095,0.048,-23.79,77.04,0
307990.0,0.286,0.152,0.158,24.9,-61.01,0
307995.0,-0.179,-0.081,0.015,-24.2,85.27,0
308000.0,0.346,0.032,0.084,5.14,-76.31,0
308005.0,-0.229,-0.198,0.051,-40.16,77.52,0
308010.0,0.312,0.293,0.084,42.18,-74.91,0
308015.0,-0.272,-0.164,0.008,-31.13,88.4,0
308020.0,0.329,0.147,0.101,23.12,-72.94,0
308025.0,-0.294,-0.251,-0.112,-38.56,110.91,0
308030.0,0.257,0.326,0.008,51.76,-88.31,0
308035.0,-0.282,-0.104,0.027,-20.27,84.58,0
308040.0,0.329,0.111,0.099,17.91,-73.32,0
308045.0,-0.296,-0.243,-0.031,-39.28,95.93,0
308050.0,0.365,0.343,0.113,41.95,-72.8,0
308055.0,-0.236,-0.222,0.065,-42.17,74.6,0
308060.0,0.358,0.259,0.096,35.01,-74.95,0
308065.0,-0.188,-0.318,0.017,-59.24,84.79,0
308070.0,0.329,0.312,0.151,40.76,-65.31,0
308075.0,-0.289,-0.234,-0.026,-38.88,95.13,0
308080.0,0.351,0.274,0.072,37.42,-78.36,0
308085.0,-0.258,-0.246,0.032,-43.43,83.02,0
308090.0,0.382,0.384,0.156,42.96,-67.76,0
308095.0,-0.246,-0.274,0.008,-48.16,88.23,0
308100.0,0.358,0.233,0.091,32.27,-75.67,0
308105.0,-0.317,-0.341,-0.014,-47.06,92.52,0
308110.0,0.312,0.401,0.099,50.75,-72.48,0
308115.0,-0.294,-0.282,0.041,-43.54,82.03,0
308120.0,0.331,0.255,0.027,37.45,-85.39,0
308125.0,-0.315,-0.33,-0.031,-46.15,95.57,0
308130.0,0.315,0.403,0.096,50.78,-73.0,0
308135.0,-0.344,-0.306,0.008,-41.62,88.74,0
308140.0,0.422,0.24,0.134,28.46,-72.34,0
308145.0,-0.32,-0.409,-0.071,-51.26,102.59,0
308150.0,0.427,0.434,0.146,43.88,-71.07,0
308155.0,-0.306,-0.332,-0.012,-47.35,92.17,0
308160.0,0.418,0.377,0.216,38.71,-62.66,0
308165.0,-0.267,-0.497,0.051,-61.32,79.26,0
308170.0,0.389,0.492,0.137,50.03,-70.61,0
308175.0,-0.32,-0.368,-0.107,-47.47,108.55,0
308180.0,0.384,0.329,0.123,39.21,-72.31,0
308185.0,-0.368,0.271,0.0,36.43,89.94,0
308190.0,0.403,0.42,0.075,45.68,-79.51,0
308195.0,-0.322,-0.399,-0.019,-51.02,93.33,0
308200.0,0.355,0.398,0.13,46.48,-69.95,0
308205.0,-0.334,-0.509,0.005,-56.71,89.11,0
308210.0,0.336,0.432,0.094,51.06,-74.41,0
308215.0,-0.298,-0.322,-0.04,-46.96,97.69,0
308220.0,0.42,0.408,0.123,43.0,-73.74,0
308225.0,-0.009,0.262,-0.026,84.04,161.62,0
308230.0,0.401,0.41,0.106,44.71,-75.22,0
308235.0,-0.346,-0.394,0.108,-47.38,72.65,0
308240.0,0.389,0.446,-0.172,46.38,-113.86,0
308245.0,-0.361,-0.502,-0.024,-54.25,93.74,0
308250.0,0.386,0.415,-0.126,45.59,-108.13,0
308255.0,-0.317,-0.411,0.118,-50.51,69.66,0
308260.0,0.401,0.473,-0.16,47.6,-111.76,0
308265.0,0.042,0.355,-0.026,82.13,-121.91,0
308270.0,0.408,0.396,-0.126,42.83,-107.23,0
308275.0,-0.339,0.494,0.154,53.01,65.62,0
308280.0,0.298,-0.341,-0.062,-48.31,-101.73,0
308285.0,-0.361,0.334,0.024,42.72,86.14,0
308290.0,0.362,-0.44,-0.081,-49.81,-102.6,0
308295.0,-0.404,0.329,0.118,38.03,73.74,0
308300.0,0.374,-0.274,-0.105,-35.21,-105.66,0
308305.0,0.058,0.355,0.07,75.62,-39.91,0
308310.0,0.274,-0.377,-0.031,-53.86,-96.4,0
308315.0,-0.365,0.315,0.168,38.03,65.31,0
308320.0,-0.071,-0.358,-0.162,-63.68,156.43,0
308325.0,-0.068,0.487,-0.009,81.92,97.63,0
308330.0,-0.028,-0.33,-0.047,-80.52,149.68,0
308335.0,-0.059,0.259,0.091,67.27,32.8,0
308340.0,-0.009,-0.31,-0.141,-65.55,176.5,0
308345.0,-0.078,0.384,-0.043,76.95,118.68,0
308350.0,-0.016,-0.27,-0.091,-71.17,170.1,0
308355.0,0.008,0.274,0.053,78.91,-8.72,0
308360.0,-0.021,-0.373,-0.131,-70.37,171.09,0
308365.0,-0.068,0.382,-0.019,79.46,105.32,0
308370.0,-0.045,-0.236,-0.153,-56.02,163.75,0
308375.0,-0.09,0.324,0.017,74.21,79.21,0
308380.0,0.044,-0.353,-0.05,-79.34,-138.55,0
308385.0,-0.092,0.255,0.067,65.81,53.88,0
308390.0,0.111,-0.294,-0.05,-67.47,-114.18,0
308395.0,-0.162,0.31,0.046,61.49,74.17,0
308400.0,0.106,-0.31,-0.047,-69.44,-114.07,0
308405.0,-0.109,0.341,-0.038,71.27,109.15,0
308410.0,0.032,-0.296,-0.076,-74.39,-157.17,0
308415.0,-0.076,0.348,0.087,71.72,41.14,0
308420.0,0.133,-0.274,-0.069,-61.42,-117.5,0
308425.0,-0.09,0.305,0.022,73.1,76.3,0
308430.0,0.063,-0.234,-0.021,-74.09,-108.5,0
308435.0,-0.088,0.3,0.07,69.53,51.45,0
308440.0,0.082,-0.227,-0.138,-54.58,-149.26,0
308445.0,-0.104,0.264,-0.05,66.35,115.54,0
308450.0,0.125,-0.303,-0.007,-67.49,-93.09,0
308455.0,-0.15,0.18,0.048,48.89,72.14,0
308460.0,0.094,-0.121,-0.1,-41.38,-136.72,0
308465.0,-0.083,0.377,0.003,77.59,88.07,0
308470.0,0.142,-0.15,0.055,-44.49,-68.69,0
308475.0,-0.128,0.209,0.103,51.77,51.15,0
308480.0,0.164,-0.267,-0.012,-58.44,-94.04,0
308485.0,-0.085,0.231,-0.002,69.72,91.34,0
308490.0,0.102,-0.119,-0.019,-49.02,-100.47,0
308495.0,-0.1,0.147,0.118,43.62,40.23,0
308500.0,0.238,-0.234,0.0,-44.49,-89.9,0
308505.0,-0.147,0.238,-0.009,58.15,93.56,0
308510.0,0.133,-0.066,-0.059,-24.47,-114.14,0
308515.0,-0.114,0.164,0.094,47.96,50.55,0
308520.0,0.209,-0.243,-0.024,-49.13,-96.42,0
308525.0,-0.136,0.147,-0.014,47.16,95.88,0
308530.0,0.13,-0.071,0.012,-28.47,-84.57,0
308535.0,-0.131,0.233,0.118,52.96,48.0,0
308540.0,0.231,-0.183,0.067,-37.35,-73.71,0
308545.0,-0.147,0.133,0.0,41.95,89.84,0
308550.0,0.185,-0.081,0.036,-23.09,-78.91,0
308555.0,-0.155,0.183,0.154,39.99,45.19,0
308560.0,0.279,-0.16,-0.004,-29.79,-90.9,0
308565.0,-0.14,0.101,0.0,35.87,89.84,0
308570.0,0.202,-0.064,0.134,-14.72,-56.36,0
308575.0,-0.15,0.13,0.036,40.17,76.38,0
308580.0,0.288,-0.116,0.022,-21.94,-85.65,0
308585.0,-0.145,0.07,0.017,25.7,83.26,0
308590.0,0.207,-0.061,0.077,-15.54,-69.58,0
308595.0,-0.212,0.101,0.01,25.53,87.31,0
308600.0,0.267,-0.033,0.015,-6.97,-86.83,0
308605.0,-0.248,0.094,-0.028,20.68,96.52,0
308610.0,0.149,0.051,0.063,17.52,-67.25,0
308615.0,-0.138,-0.059,0.032,-22.63,77.12,0
308620.0,0.283,0.018,-0.012,3.56,-92.34,0
308625.0,-0.313,-0.011,-0.112,-1.91,109.73,0
308630.0,0.245,0.111,0.053,23.87,-77.79,0
308635.0,-0.21,-0.049,0.051,-12.9,76.42,0
308640.0,0.257,0.056,0.036,12.16,-81.96,0
308645.0,-0.236,-0.021,-0.031,-4.96,97.42,0
308650.0,0.195,0.063,0.0,17.95,-89.88,0
308655.0,-0.243,-0.1,-0.007,-22.27,91.6,0
308660.0,0.166,0.025,-0.031,8.36,-100.48,0
308665.0,-0.265,-0.042,-0.126,-8.19,115.53,0
308670.0,0.248,0.202,0.046,38.74,-79.5,0
308675.0,-0.303,-0.124,-0.007,-22.18,91.28,0
308680.0,0.262,0.066,-0.012,14.03,-92.53,0
308685.0,-0.272,-0.073,-0.05,-14.85,100.39,0
308690.0,0.295,0.185,0.113,30.35,-69.08,0
308695.0,-0.215,-0.181,-0.016,-40.09,94.36,0
308700.0,0.336,0.118,0.027,19.32,-85.45,0
308705.0,-0.234,-0.148,0.084,-30.71,70.18,0
308710.0,0.329,0.219,0.211,29.23,-57.31,0
308715.0,-0.26,-0.138,0.022,-27.87,85.18,0
308720.0,0.355,0.13,0.113,19.25,-72.37,0
308725.0,-0.198,-0.241,0.06,-49.37,73.05,0
308730.0,0.255,0.262,0.077,44.54,-73.18,0
308735.0,-0.317,-0.207,-0.052,-32.81,99.35,0
308740.0,0.396,0.204,0.046,27.14,-83.39,0
308745.0,-0.329,-0.229,-0.014,-34.78,92.43,0
308750.0,0.324,0.322,0.072,44.09,-77.44,0
308755.0,-0.277,-0.277,0.036,-44.76,82.53,0
308760.0,0.403,0.238,0.154,28.87,-69.14,0
308765.0,-0.291,-0.334,-0.019,-48.89,93.69,0
308770.0,0.319,0.283,0.07,40.92,-77.67,0
308775.0,-0.224,-0.265,0.046,-49.19,78.43,0
308780.0,0.307,0.334,0.082,46.37,-75.1,0
308785.0,-0.198,0.197,0.058,43.74,73.69,0
308790.0,0.367,0.338,0.156,40.3,-66.98,0
308795.0,-0.361,-0.296,0.017,-39.35,87.28,0
308800.0,0.348,0.322,0.075,42.1,-77.9,0
308805.0,-0.306,-0.349,-0.067,-48.12,102.31,0
308810.0,0.377,0.353,0.137,41.35,-70.04,0
308815.0,-0.337,-0.385,-0.009,-48.79,91.56,0
308820.0,0.398,0.36,0.096,41.3,-76.43,0
308825.0,0.157,0.262,0.067,56.93,-66.7,0
308830.0,0.377,0.429,0.13,47.14,-71.01,0
308835.0,-0.296,-0.368,-0.033,-51.01,96.39,0
308840.0,0.427,0.312,-0.16,34.38,-110.54,0
308845.0,-0.226,-0.416,-0.098,-59.31,113.35,0
308850.0,0.379,0.518,-0.256,48.55,-124.0,0
308855.0,-0.272,-0.315,0.058,-48.58,77.99,0
308860.0,0.401,0.331,-0.232,35.58,-120.05,0
308865.0,-0.092,0.317,-0.158,60.03,149.62,0
308870.0,0.465,0.463,-0.196,42.51,-112.83,0
308875.0,-0.303,0.283,0.087,41.96,74.06,0
308880.0,0.432,-0.373,-0.201,-38.04,-114.92,0
308885.0,-0.327,0.319,-0.052,43.95,99.08,0
308890.0,0.449,-0.284,-0.237,-29.25,-117.81,0
308895.0,-0.265,0.36,0.02,53.59,85.78,0
308900.0,0.365,-0.341,-0.119,-41.66,-108.11,0
308905.0,-0.006,0.279,-0.031,83.58,168.55,0
308910.0,0.346,-0.294,-0.153,-37.84,-113.85,0
308915.0,-0.356,0.358,0.099,44.09,74.52,0
308920.0,-0.059,-0.341,-0.024,-79.48,111.79,0
308925.0,0.037,0.286,0.003,82.63,-85.67,0
308930.0,-0.119,-0.32,-0.179,-56.11,146.46,0
308935.0,0.087,0.444,0.106,72.84,-39.49,0
308940.0,-0.176,-0.387,-0.153,-58.92,130.93,0
308945.0,0.054,0.334,-0.021,80.2,-111.52,0
308950.0,-0.066,-0.385,-0.17,-64.67,158.71,0
308955.0,0.042,0.439,0.163,69.01,-14.32,0
308960.0,-0.088,-0.31,-0.11,-65.66,141.39,0
308965.0,0.085,0.283,0.072,68.55,-49.56,0
308970.0,-0.061,-0.392,0.032,-80.02,62.78,0
308975.0,0.042,0.449,0.094,77.12,-23.95,0
308980.0,-0.013,-0.296,-0.167,-60.46,175.42,0
308985.0,-0.016,0.362,0.029,84.78,28.48,0
308990.0,0.003,-0.495,-0.095,-79.08,-177.99,0
308995.0,-0.08,0.312,0.099,67.82,39.22,0
309000.0,-0.049,-0.222,-0.126,-58.53,158.7,0
309005.0,-0.057,0.358,-0.081,74.56,145.1,0
309010.0,-0.083,-0.32,-0.162,-60.32,152.97,0
309015.0,0.039,0.274,0.094,69.63,-22.72,0
309020.0,-0.1,-0.284,-0.088,-64.9,131.52,0
309025.0,-0.066,0.394,-0.014,80.26,101.93,0
309030.0,0.051,-0.303,-0.036,-78.38,-124.73,0
309035.0,-0.066,0.319,0.094,70.24,35.17,0
309040.0,0.011,-0.303,-0.107,-70.42,-174.39,0
309045.0,-0.011,0.336,0.046,82.01,13.5,0
309050.0,0.042,-0.313,-0.045,-78.9,-137.27,0
309055.0,-0.076,0.336,0.075,72.45,45.4,0
309060.0,-0.023,-0.351,-0.141,-67.88,170.73,0
309065.0,-0.133,0.384,-0.047,69.79,109.63,0
309070.0,0.051,-0.296,-0.081,-72.06,-147.69,0
309075.0,-0.076,0.384,0.079,74.06,43.61,0
309080.0,-0.011,-0.303,-0.093,-72.84,173.24,0
309085.0,-0.064,0.283,-0.038,75.34,120.76,0
309090.0,0.034,-0.246,-0.105,-65.79,-161.81,0
309095.0,-0.08,0.245,0.072,66.2,48.08,0
309100.0,0.03,-0.234,-0.115,-63.16,-165.47,0
309105.0,-0.1,0.353,-0.014,74.09,97.98,0
309110.0,0.073,-0.251,-0.031,-72.5,-112.89,0
309115.0,-0.08,0.281,0.065,69.79,51.04,0
309120.0,0.102,-0.289,-0.091,-64.78,-131.74,0
309125.0,-0.109,0.303,0.029,69.52,75.06,0
309130.0,0.078,-0.186,-0.047,-63.93,-121.47,0
309135.0,-0.159,0.245,0.043,56.01,74.74,0
309140.0,0.106,-0.272,-0.055,-66.28,-117.22,0
309145.0,-0.059,0.257,-0.012,76.86,101.11,0
309150.0,0.104,-0.183,-0.067,-56.07,-122.67,0
309155.0,-0.124,0.264,0.082,60.72,56.49,0
309160.0,0.192,-0.224,0.032,-48.97,-80.7,0
309165.0,-0.147,0.197,0.041,52.18,74.43,0
309170.0,0.14,-0.231,-0.05,-57.31,-109.63,0
309175.0,-0.169,0.257,0.067,54.7,68.25,0
309180.0,0.159,-0.16,-0.009,-45.05,-93.3,0
309185.0,-0.14,0.274,0.003,62.87,88.86,0
309190.0,0.157,-0.131,0.082,-36.52,-62.42,0
309195.0,-0.102,0.133,0.139,37.52,36.22,0
309200.0,0.214,-0.243,0.017,-48.57,-85.42,0
309205.0,-0.159,0.224,-0.031,54.0,100.91,0
309210.0,0.152,-0.057,0.029,-20.11,-79.14,0
309215.0,-0.128,0.142,0.125,38.44,45.78,0
309220.0,0.161,-0.157,-0.064,-42.14,-111.71,0
309225.0,-0.155,0.173,-0.093,43.83,121.01,0
309230.0,0.197,-0.013,0.091,-3.55,-65.15,0
309235.0,-0.145,0.013,0.079,4.44,61.31,0
309240.0,0.202,-0.217,-0.047,-46.27,-103.22,0
309245.0,-0.159,0.087,-0.052,27.42,108.15,0
309250.0,0.14,0.113,0.055,37.01,-68.36,0
309255.0,-0.236,0.089,0.024,20.66,84.11,0
309260.0,0.183,-0.157,-0.103,-36.85,-119.28,0
309265.0,-0.215,0.032,-0.016,8.46,94.36,0
309270.0,0.13,0.049,0.003,20.52,-88.77,0
309275.0,-0.147,0.063,-0.024,22.91,99.07,0
309280.0,0.281,-0.126,0.089,-23.14,-72.43,0
309285.0,-0.191,0.015,0.087,4.16,65.56,0
309290.0,0.221,0.168,0.005,37.28,-88.66,0
309295.0,-0.181,0.022,0.012,7.05,86.09,0
309300.0,0.329,-0.025,0.087,-4.28,-75.25,0
309305.0,-0.2,-0.021,0.012,-5.88,86.46,0
309310.0,0.183,0.099,0.024,28.22,-82.42,0
309315.0,-0.231,0.003,-0.002,0.81,90.49,0
309320.0,0.24,0.003,0.0,0.78,-89.9,0
309325.0,-0.238,-0.042,-0.088,-9.43,110.29,0
309330.0,0.207,0.121,-0.04,29.78,-101.02,0
309335.0,-0.212,-0.033,0.024,-8.69,83.45,0
309340.0,0.226,0.063,-0.014,15.58,-93.54,0
309345.0,-0.298,-0.03,0.063,-5.67,78.14,0
309350.0,0.305,0.152,0.06,26.01,-78.83,0
