time_ms,accel_x,accel_y,accel_z,pitch,roll,sync
53935.0,0.02,0.01,-0.003,26.44,-97.87,0
53940.0,-0.009,0.022,-0.017,49.08,153.54,0
53945.0,0.006,0.032,-0.015,63.39,-158.46,0
53950.0,-0.011,-0.026,0.004,-65.44,68.12,0
53955.0,-0.009,0.003,0.012,11.6,36.42,0
53960.0,0.008,-0.021,0.012,-55.93,-35.39,0
53965.0,-0.001,0.029,-0.0,87.24,106.34,0
53970.0,-0.006,0.029,-0.017,58.11,160.29,0
53975.0,0.02,-0.009,-0.0,-24.06,-91.13,0
53980.0,-0.009,0.034,-0.003,75.23,108.11,0
53985.0,0.015,-0.002,-0.005,-6.44,-108.61,0
53990.0,-0.001,0.02,0.026,37.2,2.99,0
53995.0,-0.011,0.02,-0.022,38.8,153.52,0
54000.0,-0.028,0.008,-0.015,13.86,118.06,0
54005.0,0.006,0.017,0.055,17.48,-6.08,0
54010.0,0.001,0.001,-0.005,6.03,-168.69,0
54015.0,-0.006,-0.002,0.004,-13.66,54.45,0
54020.0,0.015,-0.009,0.007,-28.18,-66.23,0
54025.0,-0.016,0.01,0.047,11.45,18.32,0
54030.0,-0.021,-0.004,0.012,-10.18,60.57,0
54035.0,0.008,-0.035,0.038,-42.35,-12.23,0
54040.0,-0.013,0.001,0.004,2.28,71.77,0
54045.0,-0.006,0.003,-0.017,9.2,160.29,0
54050.0,-0.021,0.029,-0.029,39.42,144.85,0
54055.0,-0.016,0.01,0.014,25.73,48.38,0
54060.0,-0.021,0.041,0.024,52.88,41.06,0
54065.0,-0.013,-0.033,-0.0,-67.97,91.71,0
54070.0,0.018,0.034,-0.003,62.14,-98.92,0
54075.0,0.011,0.005,-0.027,10.53,-158.35,0
54080.0,0.001,-0.011,-0.012,-42.6,-175.21,0
54085.0,0.003,0.001,0.012,2.65,-16.52,0
54090.0,0.003,0.015,-0.008,60.86,-155.64,0
54095.0,-0.009,0.029,0.002,73.33,76.84,0
54100.0,-0.018,0.01,0.009,26.52,63.13,0
54105.0,0.003,0.015,-0.008,60.86,-155.64,0
54110.0,-0.025,-0.016,0.024,-25.12,47.06,0
54115.0,0.006,0.022,-0.008,66.61,-142.46,0
54120.0,0.035,0.02,-0.02,26.4,-119.5,0
54125.0,-0.025,-0.007,-0.022,-11.19,130.94,0
54130.0,0.008,0.013,0.016,34.38,-26.68,0
54135.0,-0.016,-0.002,-0.005,-6.33,108.26,0
54140.0,0.02,0.036,0.007,59.71,-71.43,0
54145.0,-0.037,0.003,-0.003,4.52,94.28,0
54150.0,0.018,0.029,0.014,52.32,-51.87,0
54155.0,0.006,0.029,0.021,53.17,-15.4,0
54160.0,-0.013,-0.019,0.028,-30.71,25.19,0
54165.0,0.003,-0.016,-0.027,-31.01,-172.69,0
54170.0,-0.011,0.015,-0.015,39.09,143.48,0
54175.0,0.023,-0.028,-0.01,-48.77,-113.83,0
54180.0,0.032,0.003,-0.01,5.01,-107.23,0
54185.0,-0.009,-0.019,0.002,-64.75,76.84,0
54190.0,0.003,0.041,-0.015,69.83,-166.91,0
54195.0,0.006,0.025,0.026,42.66,-12.66,0
54200.0,-0.028,0.013,-0.02,20.29,125.22,0
54205.0,0.001,-0.002,-0.008,-13.49,-172.21,0
54210.0,0.013,0.022,0.033,31.85,-21.44,0
54215.0,-0.011,0.02,0.004,59.13,68.12,0
54220.0,0.008,-0.031,-0.024,-49.95,-161.34,0
54225.0,0.003,0.029,-0.024,49.99,-171.98,0
54230.0,0.003,-0.009,0.026,-19.02,-7.54,0
54235.0,0.037,0.005,-0.01,7.95,-105.11,0
54240.0,-0.032,0.034,0.004,46.11,82.3,0
54245.0,0.015,0.044,0.007,68.92,-66.23,0
54250.0,0.023,0.039,0.007,58.75,-73.28,0
54255.0,0.001,0.013,0.004,70.2,-13.29,0
54260.0,0.018,0.017,-0.017,35.01,-133.95,0
54265.0,0.006,0.025,0.033,36.08,-9.98,0
54270.0,0.015,0.01,0.016,24.28,-43.27,0
54275.0,-0.001,0.017,0.033,27.58,2.35,0
54280.0,-0.032,-0.031,-0.0,-43.26,90.7,0
54285.0,-0.009,0.027,0.012,61.86,36.42,0
54290.0,-0.021,-0.002,0.036,-2.56,30.01,0
54295.0,0.006,0.02,-0.01,59.63,-149.71,0
54300.0,-0.013,0.01,-0.029,17.56,155.41,0
54305.0,-0.006,0.013,0.014,39.39,23.75,0
54310.0,-0.021,-0.007,-0.015,-14.69,125.75,0
54315.0,0.013,-0.002,-0.008,-6.95,-120.23,0
54320.0,0.003,-0.002,0.002,-24.81,-59.82,0
54325.0,0.011,0.001,0.033,0.92,-17.77,0
54330.0,-0.021,-0.011,-0.034,-16.06,148.84,0
54335.0,0.015,-0.023,0.009,-52.52,-59.21,0
54340.0,-0.016,0.013,0.012,32.69,53.64,0
54345.0,0.006,-0.016,0.028,-29.25,-11.62,0
54350.0,-0.004,0.001,-0.008,3.78,153.67,0
54355.0,0.027,0.005,-0.008,10.66,-105.48,0
54360.0,-0.018,0.044,-0.015,61.84,129.18,0
54365.0,0.008,0.01,0.033,16.54,-13.94,0
54370.0,0.011,0.001,0.004,2.78,-67.53,0
54375.0,-0.006,-0.019,-0.0,-71.68,93.7,0
54380.0,-0.021,0.013,0.016,25.53,51.42,0
54385.0,0.008,0.027,0.038,34.74,-12.23,0
54390.0,0.02,0.022,-0.003,47.32,-97.87,0
54395.0,-0.011,0.046,-0.015,68.25,143.48,0
54400.0,0.011,0.003,-0.005,14.03,-116.04,0
54405.0,0.015,0.039,0.036,45.11,-23.45,0
54410.0,-0.001,0.022,-0.022,45.15,176.46,0
54415.0,-0.001,0.001,0.004,6.93,17.17,0
54420.0,-0.018,0.001,0.016,1.31,47.91,0
54425.0,-0.004,0.003,0.009,16.58,22.23,0
54430.0,-0.013,0.005,-0.022,11.76,148.73,0
54435.0,0.006,0.022,-0.015,54.32,-158.46,0
54440.0,0.011,-0.016,-0.012,-44.83,-139.37,0
54445.0,0.013,0.005,-0.0,22.34,-91.75,0
54450.0,-0.006,0.001,0.028,1.1,12.24,0
54455.0,0.006,-0.002,0.019,-5.34,-17.26,0
54460.0,-0.011,0.025,-0.022,44.98,153.52,0
54465.0,0.001,0.036,0.031,49.87,-1.93,0
54470.0,-0.004,0.013,-0.0,73.25,96.05,0
54475.0,-0.025,0.003,0.016,5.6,57.11,0
54480.0,-0.011,-0.004,-0.005,-19.27,115.38,0
54485.0,0.003,0.022,-0.055,21.69,-176.46,0
54490.0,-0.004,-0.014,0.021,-32.73,10.06,0
54495.0,-0.001,0.029,0.031,43.6,2.53,0
54500.0,0.008,0.02,-0.008,60.44,-132.68,0
54505.0,0.035,0.005,0.009,8.51,-75.12,0
54510.0,-0.004,0.013,0.043,16.29,5.02,0
54515.0,-0.001,0.001,-0.02,1.63,176.03,0
54520.0,0.001,0.036,0.012,72.33,-5.12,0
54525.0,0.015,-0.004,0.04,-5.6,-20.92,0
54530.0,-0.013,-0.019,-0.0,-54.36,91.71,0
54535.0,-0.006,0.008,-0.022,18.76,164.36,0
54540.0,-0.009,0.001,-0.055,0.57,171.25,0
54545.0,-0.021,0.001,-0.022,1.07,136.94,0
54550.0,-0.013,0.022,-0.012,50.56,132.86,0
54555.0,-0.001,0.001,0.014,2.28,5.55,0
54560.0,-0.006,-0.014,0.004,-61.32,54.45,0
54565.0,-0.001,0.015,0.045,18.31,1.72,0
54570.0,-0.018,0.027,0.002,55.88,83.71,0
54575.0,0.02,-0.004,0.024,-7.77,-40.62,0
54580.0,0.001,0.027,-0.027,45.15,-177.78,0
54585.0,-0.023,-0.007,0.004,-15.86,79.15,0
54590.0,-0.011,-0.002,-0.041,-2.47,165.1,0
54595.0,-0.011,0.008,0.012,25.93,43.37,0
54600.0,-0.018,0.003,0.004,9.0,76.38,0
54605.0,-0.006,0.015,-0.039,20.85,170.98,0
54610.0,-0.009,0.01,-0.003,48.45,108.11,0
54615.0,0.001,0.017,-0.032,28.77,-178.11,0
54620.0,-0.006,0.003,0.014,10.95,23.75,0
54625.0,0.003,0.013,0.026,25.59,-7.54,0
54630.0,-0.011,0.013,0.002,48.43,79.65,0
54635.0,0.006,0.025,-0.01,64.76,-149.71,0
54640.0,0.006,0.003,-0.008,17.16,-142.46,0
54645.0,-0.006,0.003,0.024,6.92,14.63,0
54650.0,0.001,0.022,-0.022,45.18,-177.29,0
54655.0,-0.004,-0.043,0.045,-43.23,4.76,0
54660.0,-0.016,0.005,0.021,11.47,36.63,0
54665.0,0.035,0.008,0.019,11.14,-61.51,0
54670.0,-0.004,0.039,-0.012,71.6,163.13,0
54675.0,-0.011,0.01,-0.008,37.3,124.74,0
54680.0,-0.006,0.008,-0.0,51.5,93.7,0
54685.0,0.011,-0.004,0.009,-16.77,-49.15,0
54690.0,0.011,0.008,-0.005,33.24,-116.04,0
54695.0,0.023,-0.023,0.009,-43.81,-67.88,0
54700.0,0.001,-0.011,0.009,-51.01,-6.45,0
54705.0,0.025,0.029,-0.022,41.38,-131.3,0
54710.0,0.02,-0.002,0.033,-2.71,-31.37,0
54715.0,-0.03,0.034,0.004,48.26,81.7,0
54720.0,0.087,-0.002,0.036,-1.12,-67.85,0
54725.0,-0.092,0.003,0.04,1.68,66.42,0
54730.0,0.066,0.02,-0.048,13.59,-126.32,0
54735.0,-0.016,0.013,-0.063,10.98,165.91,0
54740.0,-0.049,0.008,-0.01,8.76,101.45,0
54745.0,0.07,0.008,0.012,6.19,-80.67,0
54750.0,-0.071,-0.016,0.028,-12.0,68.19,0
54755.0,0.027,0.003,0.036,3.77,-37.62,0
54760.0,-0.025,0.003,0.007,6.43,74.99,0
54765.0,-0.006,-0.002,-0.046,-2.27,172.37,0
54770.0,-0.011,0.027,-0.027,42.96,157.76,0
54775.0,0.042,0.005,0.024,6.37,-60.57,0
54780.0,-0.023,-0.014,0.047,-14.67,25.75,0
54785.0,0.003,0.005,0.014,20.39,-13.8,0
54790.0,-0.006,0.025,-0.027,41.77,167.05,0
54795.0,0.025,-0.011,0.009,-23.21,-69.82,0
54800.0,-0.009,0.02,-0.012,52.67,145.38,0
54805.0,0.006,-0.016,-0.003,-68.26,-115.61,0
54810.0,0.018,-0.014,0.021,-26.54,-40.08,0
54815.0,-0.009,0.003,-0.036,4.53,166.77,0
54820.0,0.001,0.001,-0.022,1.46,-177.29,0
54825.0,0.001,0.01,-0.024,22.59,-177.56,0
54830.0,0.008,-0.002,0.014,-6.46,-30.48,0
54835.0,0.039,0.027,-0.015,32.62,-110.57,0
54840.0,-0.042,0.001,0.021,0.68,63.3,0
54845.0,0.003,-0.002,-0.005,-16.45,-146.51,0
54850.0,0.001,-0.009,0.002,-75.99,-27.46,0
54855.0,-0.037,0.02,0.012,26.8,72.75,0
54860.0,-0.004,0.001,0.004,5.53,40.51,0
54865.0,-0.016,0.032,-0.003,63.25,100.07,0
54870.0,0.018,-0.004,-0.008,-12.33,-113.07,0
54875.0,-0.009,0.017,-0.017,42.1,153.54,0
54880.0,-0.001,0.005,0.021,14.16,3.67,0
54885.0,0.015,0.02,-0.051,20.41,-163.09,0
54890.0,-0.032,-0.014,0.033,-16.57,44.44,0
54895.0,-0.009,-0.011,0.04,-15.48,11.96,0
54900.0,-0.011,0.013,0.038,17.62,16.09,0
54905.0,0.011,-0.011,-0.015,-32.11,-144.28,0
54910.0,-0.03,0.003,0.012,5.23,68.96,0
54915.0,-0.001,0.017,-0.029,30.71,177.33,0
54920.0,0.02,0.005,0.009,13.55,-65.55,0
54925.0,0.011,-0.019,0.014,-46.67,-37.23,0
54930.0,-0.013,-0.007,-0.022,-14.47,148.73,0
54935.0,-0.023,0.003,-0.0,7.34,90.99,0
54940.0,-0.042,-0.016,0.024,-18.58,60.76,0
54945.0,0.013,-0.004,0.024,-8.94,-28.92,0
54950.0,-0.023,-0.014,0.004,-30.63,79.15,0
54955.0,-0.021,-0.019,-0.005,-41.31,104.19,0
54960.0,-0.004,-0.011,-0.008,-53.46,153.67,0
54965.0,-0.018,0.015,-0.012,34.23,124.32,0
54970.0,0.008,-0.009,-0.015,-28.09,-150.89,0
54975.0,0.003,0.032,-0.003,82.05,-129.14,0
54980.0,-0.006,0.017,-0.003,68.71,114.44,0
54985.0,-0.016,0.02,0.026,33.02,31.22,0
54990.0,-0.004,0.001,0.002,7.49,61.98,0
54995.0,0.003,0.017,-0.0,78.72,-96.61,0
55000.0,-0.03,-0.021,0.021,-29.71,54.89,0
55005.0,0.013,0.015,0.019,33.18,-34.74,0
55010.0,-0.009,-0.007,0.021,-16.19,21.99,0
55015.0,-0.001,0.025,-0.029,40.04,177.33,0
55020.0,-0.013,-0.004,-0.01,-14.26,126.81,0
55025.0,-0.049,-0.007,0.014,-7.37,74.16,0
55030.0,-0.03,0.008,-0.008,14.01,104.14,0
55035.0,-0.001,0.01,0.012,41.02,6.69,0
55040.0,-0.035,0.02,0.033,22.29,46.48,0
55045.0,-0.016,0.027,-0.01,55.31,122.39,0
55050.0,0.006,0.008,0.036,12.14,-9.32,0
55055.0,-0.03,-0.007,-0.0,-12.42,90.76,0
55060.0,0.02,-0.009,0.033,-13.09,-31.37,0
55065.0,-0.035,-0.014,-0.003,-21.54,94.58,0
55070.0,0.011,0.003,-0.008,12.76,-125.53,0
55075.0,0.015,0.017,-0.029,27.73,-152.13,0
55080.0,-0.006,0.015,0.016,40.49,20.59,0
55085.0,0.003,0.027,-0.058,24.89,-176.61,0
55090.0,-0.021,-0.009,0.009,-21.87,65.89,0
55095.0,0.006,0.025,0.004,73.42,-53.0,0
55100.0,-0.025,-0.033,0.024,-43.64,47.06,0
55105.0,-0.001,0.025,0.009,69.26,8.41,0
55110.0,0.015,0.017,0.031,26.74,-26.62,0
55115.0,-0.013,0.01,0.004,35.84,71.77,0
55120.0,0.001,0.029,-0.012,67.03,-175.21,0
55125.0,0.027,0.027,-0.0,44.49,-90.83,0
55130.0,-0.025,0.01,-0.075,7.33,161.27,0
55135.0,0.013,-0.016,0.012,-42.94,-48.34,0
55140.0,-0.006,0.02,-0.012,54.98,153.58,0
55145.0,-0.009,0.005,0.004,29.11,62.79,0
55150.0,-0.001,-0.002,0.019,-5.58,4.14,0
55155.0,-0.006,0.017,0.019,41.27,18.14,0
55160.0,0.018,0.02,0.021,35.49,-40.08,0
55165.0,-0.001,0.008,0.016,25.25,4.74,0
55170.0,-0.006,0.013,0.028,23.37,12.24,0
55175.0,-0.013,-0.011,0.038,-15.85,19.37,0
55180.0,0.02,0.034,0.014,54.23,-55.33,0
55185.0,-0.009,-0.007,0.036,-10.28,13.52,0
55190.0,0.001,0.003,0.002,52.7,-27.46,0
55195.0,-0.011,0.013,-0.015,34.3,143.48,0
55200.0,0.015,0.008,0.014,20.42,-47.8,0
55205.0,0.008,0.029,0.021,52.23,-21.24,0
55210.0,0.015,0.005,0.036,7.86,-23.45,0
55215.0,0.006,0.001,-0.022,1.41,-165.13,0
55220.0,-0.023,-0.016,-0.055,-15.11,157.56,0
55225.0,-0.009,0.036,-0.005,74.68,121.27,0
55230.0,0.008,-0.019,0.002,-65.54,-76.35,0
55235.0,-0.021,-0.009,0.028,-14.46,35.9,0
55240.0,-0.001,-0.002,0.012,-8.95,6.69,0
55245.0,0.008,0.01,-0.003,49.42,-108.76,0
55250.0,0.013,0.022,0.012,51.78,-48.34,0
55255.0,0.015,0.013,0.019,27.31,-39.39,0
55260.0,-0.018,0.022,0.012,45.8,57.43,0
55265.0,0.006,0.015,-0.005,62.41,-131.67,0
55270.0,0.015,0.015,-0.034,21.83,-155.58,0
55275.0,0.013,0.032,-0.003,67.22,-102.12,0
55280.0,0.001,0.025,0.021,49.16,-2.81,0
55285.0,-0.025,0.008,0.021,13.21,50.1,0
55290.0,0.013,0.008,-0.003,30.19,-102.12,0
55295.0,-0.021,0.027,-0.0,52.67,91.11,0
55300.0,-0.001,0.02,-0.015,53.05,174.75,0
55305.0,0.011,0.027,-0.027,43.08,-158.35,0
55310.0,0.011,0.003,-0.027,5.86,-158.35,0
55315.0,0.001,-0.023,0.031,-37.26,-1.93,0
55320.0,0.006,0.003,-0.008,17.16,-142.46,0
55325.0,-0.004,-0.009,-0.01,-40.24,159.39,0
55330.0,-0.018,0.001,-0.003,1.75,98.76,0
55335.0,0.003,-0.023,0.009,-67.26,-20.5,0
55340.0,-0.001,0.015,-0.003,78.25,154.09,0
55345.0,0.001,0.027,-0.041,33.19,-178.55,0
55350.0,-0.001,0.022,-0.02,48.44,176.03,0
55355.0,-0.001,0.027,-0.003,83.42,154.09,0
55360.0,-0.016,-0.007,-0.003,-22.53,100.07,0
55365.0,0.008,-0.011,-0.0,-54.2,-92.77,0
55370.0,-0.011,-0.033,-0.01,-65.82,132.37,0
55375.0,0.015,0.039,-0.01,64.73,-122.93,0
55380.0,-0.001,-0.011,0.016,-34.8,4.74,0
55385.0,0.001,0.029,0.012,68.36,-5.12,0
55390.0,-0.006,0.008,0.012,30.57,27.97,0
55395.0,-0.028,-0.028,0.036,-32.03,37.95,0
55400.0,0.015,0.01,0.021,21.18,-36.06,0
55405.0,0.003,-0.002,-0.015,-6.91,-166.91,0
55410.0,-0.006,0.005,-0.005,33.62,130.16,0
55415.0,-0.001,0.039,-0.024,57.9,176.81,0
55420.0,-0.006,0.001,-0.017,1.76,160.29,0
55425.0,-0.001,0.027,-0.012,65.17,173.74,0
55430.0,0.025,0.02,0.024,29.87,-46.69,0
55435.0,-0.016,-0.026,-0.01,-54.16,122.39,0
55440.0,0.006,0.01,0.036,15.73,-9.32,0
55445.0,0.003,0.025,0.012,63.77,-16.52,0
55450.0,-0.011,0.017,-0.017,40.4,147.49,0
55455.0,-0.013,-0.011,-0.0,-40.56,91.71,0
55460.0,0.027,0.005,-0.005,10.86,-100.73,0
55465.0,-0.006,0.003,0.052,3.21,6.7,0
55470.0,-0.006,0.003,0.021,7.64,16.2,0
55475.0,0.037,0.008,-0.036,8.5,-134.5,0
55480.0,-0.021,0.046,0.024,55.86,41.06,0
55485.0,0.015,0.02,-0.005,50.5,-108.61,0
55490.0,0.023,-0.019,-0.003,-39.25,-97.05,0
55495.0,0.035,-0.007,0.007,-10.65,-78.89,0
55500.0,-0.004,0.02,-0.055,19.52,176.13,0
55505.0,0.011,0.032,0.007,68.32,-57.41,0
55510.0,0.003,0.022,0.007,71.02,-26.83,0
55515.0,-0.004,0.02,-0.032,31.84,173.21,0
55520.0,0.011,0.015,-0.02,33.86,-151.5,0
55525.0,-0.006,0.013,-0.034,19.98,169.73,0
55530.0,-0.004,0.01,0.012,39.8,17.96,0
55535.0,0.023,0.003,-0.0,7.45,-91.01,0
55540.0,0.02,-0.007,-0.02,-13.26,-134.08,0
55545.0,-0.03,0.015,-0.003,26.28,95.3,0
55550.0,0.011,-0.026,-0.005,-65.38,-116.04,0
55555.0,-0.013,0.008,0.012,23.68,49.03,0
55560.0,0.032,0.013,-0.043,13.04,-143.52,0
55565.0,-0.023,-0.019,0.004,-38.57,79.15,0
55570.0,0.008,0.027,-0.01,64.33,-140.51,0
55575.0,0.001,-0.007,-0.024,-15.21,-177.56,0
55580.0,-0.006,0.027,-0.032,39.94,168.97,0
55585.0,-0.004,0.001,-0.0,8.42,96.05,0
55590.0,0.011,-0.007,-0.036,-9.93,-163.71,0
55595.0,-0.018,-0.002,-0.0,-5.78,91.26,0
55600.0,-0.001,0.008,0.004,59.3,17.17,0
55605.0,-0.028,0.001,-0.012,1.06,114.07,0
55610.0,-0.032,0.013,0.012,19.97,70.39,0
55615.0,-0.001,0.01,0.012,41.02,6.69,0
55620.0,-0.009,0.022,0.031,34.73,15.53,0
55625.0,-0.004,-0.011,0.002,-69.58,61.98,0
55630.0,0.027,0.039,-0.017,50.27,-122.08,0
55635.0,-0.004,0.001,0.014,2.21,15.03,0
55640.0,-0.011,0.025,-0.003,65.27,104.33,0
55645.0,0.027,0.013,0.021,19.91,-52.31,0
55650.0,0.013,-0.009,0.016,-23.34,-38.49,0
55655.0,-0.011,-0.011,0.007,-41.57,58.18,0
55660.0,0.013,-0.004,-0.022,-9.41,-149.34,0
55665.0,0.003,0.025,-0.005,75.76,-146.51,0
55670.0,0.02,-0.028,-0.012,-49.95,-121.49,0
55675.0,-0.001,0.01,0.019,28.32,4.14,0
55680.0,-0.006,-0.002,-0.01,-8.9,148.36,0
55685.0,0.008,0.013,-0.032,21.04,-165.38,0
55690.0,-0.04,0.02,-0.012,25.38,107.32,0
55695.0,0.013,-0.026,0.002,-62.95,-81.28,0
55700.0,-0.023,-0.019,-0.027,-27.84,139.41,0
55705.0,-0.013,0.02,0.012,48.16,49.03,0
55710.0,0.011,0.008,-0.029,14.02,-159.98,0
55715.0,-0.028,-0.011,0.004,-22.15,80.99,0
55720.0,-0.047,-0.009,-0.022,-9.89,115.1,0
55725.0,0.023,-0.043,-0.027,-50.55,-139.81,0
55730.0,-0.035,0.017,0.004,26.23,82.82,0
55735.0,0.02,0.013,0.002,31.7,-84.35,0
55740.0,0.03,0.013,-0.02,19.38,-123.3,0
55745.0,-0.049,-0.071,-0.003,-55.32,93.25,0
55750.0,0.044,-0.023,0.062,-17.11,-35.51,0
55755.0,0.023,0.017,0.033,23.36,-34.29,0
55760.0,0.02,-0.019,-0.053,-18.13,-159.17,0
55765.0,-0.009,-0.021,-0.017,-47.6,153.54,0
55770.0,-0.047,0.025,-0.041,21.46,131.26,0
55775.0,0.058,0.025,-0.01,22.43,-99.68,0
55780.0,-0.042,0.013,0.057,10.02,36.39,0
55785.0,0.023,-0.023,-0.015,-40.91,-123.17,0
55790.0,-0.052,0.008,-0.0,8.53,90.44,0
55795.0,-0.025,0.001,-0.07,0.43,160.09,0
55800.0,-0.013,-0.05,-0.017,-66.4,142.16,0
55805.0,-0.028,0.001,0.026,0.84,46.87,0
55810.0,0.018,0.013,0.021,24.38,-40.08,0
55815.0,0.037,0.048,0.026,47.02,-54.93,0
55820.0,-0.006,0.015,-0.024,30.73,165.83,0
55825.0,-0.004,0.015,0.031,25.74,6.96,0
55830.0,0.015,-0.023,0.059,-20.84,-14.52,0
55835.0,-0.004,0.003,-0.005,24.77,144.12,0
55840.0,0.006,-0.004,-0.077,-3.13,-175.67,0
55845.0,-0.023,0.005,0.024,9.25,44.21,0
55850.0,0.02,0.01,0.024,18.1,-40.62,0
55855.0,-0.011,0.025,0.031,36.92,19.59,0
55860.0,-0.04,-0.007,0.045,-6.29,41.34,0
55865.0,0.032,0.036,-0.008,47.82,-103.26,0
55870.0,-0.042,0.017,-0.015,21.23,109.34,0
55875.0,0.037,0.008,-0.048,7.26,-142.57,0
55880.0,-0.023,0.01,0.014,20.7,58.62,0
55885.0,-0.035,0.034,0.04,32.59,40.87,0
55890.0,0.013,0.008,0.019,18.73,-34.74,0
55895.0,-0.001,0.013,0.019,33.68,4.14,0
55900.0,-0.004,0.025,0.009,67.97,22.23,0
55905.0,0.018,-0.023,0.007,-50.84,-69.13,0
55910.0,-0.004,0.008,0.002,61.24,61.98,0
55915.0,0.013,0.005,0.012,17.07,-48.34,0
55920.0,0.003,0.02,-0.029,33.9,-173.28,0
55925.0,-0.023,0.015,-0.008,31.74,108.31,0
55930.0,0.013,-0.019,0.019,-39.17,-34.74,0
55935.0,-0.001,0.015,0.014,46.76,5.55,0
55940.0,0.006,-0.004,0.014,-15.62,-22.64,0
55945.0,0.047,0.025,0.016,26.42,-70.63,0
55950.0,-0.028,0.032,-0.02,43.06,125.22,0
55955.0,0.03,0.013,0.036,15.13,-39.97,0
55960.0,-0.023,0.01,-0.005,23.34,102.76,0
55965.0,0.011,0.013,0.028,22.5,-20.54,0
55970.0,0.003,0.003,-0.022,7.57,-171.11,0
55975.0,-0.016,-0.019,-0.027,-30.95,149.54,0
55980.0,0.003,0.034,0.024,55.08,-8.29,0
55985.0,0.001,0.003,-0.022,7.65,-177.29,0
55990.0,-0.006,0.036,0.012,70.24,27.97,0
55995.0,0.006,0.003,-0.039,4.31,-171.44,0
56000.0,-0.009,0.02,0.021,40.84,21.99,0
56005.0,-0.013,0.022,0.024,39.25,29.51,0
56010.0,0.018,-0.014,-0.01,-34.09,-119.27,0
56015.0,-0.021,0.025,-0.041,28.08,153.48,0
56020.0,0.011,0.01,-0.005,40.63,-116.04,0
56025.0,-0.009,-0.014,0.031,-23.41,15.53,0
56030.0,-0.013,-0.004,-0.012,-13.1,132.86,0
56035.0,0.015,-0.016,-0.01,-41.44,-122.93,0
56040.0,0.001,0.008,0.019,22.4,-3.17,0
56045.0,0.003,-0.016,-0.0,-77.96,-96.61,0
56050.0,-0.025,0.01,-0.024,16.1,133.89,0
56055.0,-0.049,-0.028,0.033,-25.39,56.07,0
56060.0,0.008,0.013,0.031,21.5,-14.98,0
56065.0,0.006,0.001,0.026,1.2,-12.66,0
56070.0,-0.011,0.015,0.012,43.15,43.37,0
56075.0,-0.016,0.034,-0.015,57.67,133.2,0
56080.0,-0.023,0.029,0.007,50.8,73.5,0
56085.0,0.008,0.001,0.031,1.01,-14.98,0
56090.0,-0.035,0.01,0.021,13.96,58.77,0
56095.0,-0.001,0.005,0.002,65.71,34.2,0
56100.0,0.02,-0.002,0.007,-4.93,-71.43,0
56105.0,0.015,0.022,-0.01,50.3,-122.93,0
56110.0,-0.004,0.013,0.021,30.26,10.06,0
56115.0,-0.013,0.041,0.002,71.91,81.48,0
56120.0,0.006,-0.019,0.038,-25.86,-8.74,0
56125.0,-0.009,0.01,-0.034,16.16,165.87,0
56130.0,0.006,0.005,0.014,19.46,-22.64,0
56135.0,0.013,0.003,0.004,12.14,-71.35,0
56140.0,0.035,-0.016,-0.02,-22.2,-119.5,0
56145.0,0.003,0.015,-0.01,54.75,-161.01,0
56150.0,-0.021,0.003,0.04,3.74,26.97,0
56155.0,0.011,-0.007,0.004,-29.97,-67.53,0
56160.0,-0.006,-0.028,-0.005,-74.07,130.16,0
56165.0,-0.023,0.029,-0.024,41.23,136.74,0
56170.0,0.025,0.015,0.021,24.51,-49.75,0
56175.0,-0.011,-0.002,-0.036,-2.77,163.24,0
56180.0,-0.025,-0.009,0.004,-19.35,80.15,0
56185.0,0.003,-0.011,-0.0,-73.16,-96.61,0
56190.0,0.008,0.005,0.016,16.28,-26.68,0
56195.0,0.001,-0.004,0.045,-5.36,-1.32,0
56200.0,0.008,0.013,-0.003,55.28,-108.76,0
56205.0,-0.004,0.022,0.007,70.68,28.94,0
56210.0,0.011,-0.007,0.031,-11.52,-19.06,0
56215.0,0.018,0.036,0.014,58.19,-51.87,0
56220.0,0.011,0.02,0.012,51.46,-42.53,0
56225.0,-0.001,0.003,0.024,7.14,3.3,0
56230.0,-0.006,0.001,-0.024,1.27,165.83,0
56235.0,-0.013,0.008,0.04,10.34,18.3,0
56240.0,-0.006,-0.011,-0.0,-61.65,93.7,0
56245.0,0.001,0.017,-0.017,45.21,-176.54,0
56250.0,-0.013,-0.028,0.007,-62.04,63.02,0
56255.0,0.018,0.005,-0.015,13.02,-129.68,0
56260.0,0.011,0.003,-0.024,6.35,-156.44,0
56265.0,0.003,0.003,-0.065,2.6,-176.98,0
56270.0,0.008,0.02,-0.022,40.07,-159.47,0
56275.0,-0.001,0.017,0.009,61.82,8.41,0
56280.0,0.013,0.013,0.04,16.48,-17.89,0
56285.0,-0.004,0.001,-0.024,1.3,171.24,0
56290.0,-0.009,0.02,-0.017,45.81,153.54,0
56295.0,0.001,-0.014,-0.041,-18.56,-178.55,0
56300.0,0.013,0.013,-0.032,20.17,-157.58,0
56305.0,-0.009,0.008,-0.02,19.94,156.41,0
56310.0,-0.001,-0.004,0.019,-12.68,4.14,0
56315.0,-0.006,-0.007,-0.043,-8.58,171.96,0
56320.0,0.025,-0.009,0.007,-19.21,-74.8,0
56325.0,-0.006,0.015,-0.008,56.82,140.97,0
56330.0,0.037,0.015,0.016,20.27,-66.12,0
56335.0,0.006,0.032,-0.0,79.56,-93.91,0
56340.0,-0.023,0.017,0.002,36.99,85.02,0
56345.0,0.008,0.008,-0.01,30.92,-140.51,0
56350.0,0.008,0.01,0.012,35.53,-35.39,0
56355.0,0.023,0.029,-0.041,31.99,-151.21,0
56360.0,-0.018,-0.011,0.002,-32.05,83.71,0
56365.0,-0.018,0.008,0.045,9.05,21.89,0
56370.0,0.003,0.015,0.012,51.03,-16.52,0
56375.0,-0.013,0.02,-0.003,55.36,101.83,0
56380.0,0.02,0.01,-0.034,14.4,-149.23,0
56385.0,-0.016,0.001,0.012,1.64,53.64,0
56390.0,0.008,-0.007,0.012,-25.02,-35.39,0
56395.0,-0.013,0.017,-0.005,50.45,111.26,0
56400.0,-0.011,0.005,-0.02,13.43,150.79,0
56405.0,-0.009,0.003,-0.008,14.5,131.6,0
56410.0,0.025,0.01,-0.024,16.2,-134.26,0
56415.0,-0.009,-0.007,0.026,-13.63,18.22,0
56420.0,0.025,-0.011,-0.012,-22.27,-116.34,0
56425.0,-0.011,0.013,0.004,46.76,68.12,0
56430.0,-0.009,-0.021,-0.012,-54.39,145.38,0
56435.0,-0.001,0.008,-0.008,45.15,169.85,0
56440.0,0.001,-0.009,0.002,-75.99,-27.46,0
56445.0,-0.001,0.017,-0.0,85.33,106.34,0
56450.0,0.006,0.01,-0.012,36.55,-154.78,0
56455.0,0.003,-0.004,-0.022,-10.78,-171.11,0
56460.0,-0.006,-0.033,-0.003,-78.43,114.44,0
56465.0,-0.009,-0.007,-0.008,-30.12,131.6,0
56470.0,-0.006,0.01,0.064,8.93,5.46,0
56475.0,0.003,0.02,0.024,39.64,-8.29,0
56480.0,0.008,-0.019,0.004,-63.38,-61.89,0
56485.0,-0.001,-0.023,-0.022,-46.76,176.46,0
56490.0,-0.013,0.022,0.033,31.77,21.92,0
56495.0,-0.009,-0.028,0.004,-71.18,62.79,0
56500.0,0.001,0.013,-0.017,36.09,-176.54,0
56505.0,-0.016,0.013,-0.01,33.94,122.39,0
56510.0,-0.004,0.005,0.038,7.99,5.65,0
56515.0,-0.001,0.005,-0.029,10.39,177.33,0
56520.0,0.003,0.008,-0.003,60.25,-129.14,0
56525.0,-0.023,-0.009,0.028,-13.9,38.95,0
56530.0,0.008,0.027,-0.003,72.11,-108.76,0
56535.0,-0.011,0.032,-0.012,62.48,138.53,0
56540.0,-0.018,0.02,-0.003,47.08,98.76,0
56545.0,-0.028,0.013,-0.0,24.34,90.82,0
56550.0,0.011,0.015,0.004,52.42,-67.53,0
56555.0,-0.025,0.027,-0.01,44.68,111.52,0
56560.0,-0.013,0.005,0.007,19.67,63.02,0
56565.0,0.025,0.001,0.004,1.26,-80.03,0
56570.0,0.008,0.008,0.009,32.14,-41.85,0
56575.0,0.013,0.005,0.047,6.2,-15.32,0
56580.0,-0.021,0.02,0.024,32.26,41.06,0
56585.0,0.018,0.013,0.021,24.38,-40.08,0
56590.0,0.006,-0.004,0.012,-18.08,-26.72,0
56595.0,-0.013,-0.002,-0.01,-6.29,126.81,0
56600.0,-0.016,0.001,0.036,0.82,23.88,0
56605.0,-0.011,0.001,-0.034,0.9,162.13,0
56610.0,0.011,0.001,-0.008,2.45,-125.53,0
56615.0,-0.011,-0.011,0.014,-32.76,38.05,0
56620.0,0.011,0.008,-0.01,27.99,-133.22,0
56625.0,0.042,0.027,-0.022,29.7,-117.74,0
56630.0,0.018,0.015,-0.027,24.92,-146.35,0
56635.0,0.011,0.003,0.045,3.65,-13.25,0
56640.0,0.037,0.01,0.009,14.91,-76.05,0
56645.0,-0.009,0.005,0.009,23.1,42.93,0
56650.0,-0.011,0.027,0.002,67.55,79.65,0
56655.0,-0.004,0.039,0.014,69.59,15.03,0
56660.0,-0.023,-0.021,-0.027,-30.8,139.41,0
56665.0,0.006,0.017,-0.02,40.33,-163.41,0
56670.0,-0.004,-0.007,0.012,-28.57,17.96,0
56675.0,0.006,0.01,0.016,30.27,-19.6,0
56680.0,0.008,0.005,-0.01,22.47,-140.51,0
56685.0,0.001,-0.019,-0.005,-74.12,-168.69,0
56690.0,-0.009,-0.004,0.031,-7.56,15.53,0
56695.0,-0.009,-0.019,0.028,-32.14,16.77,0
56700.0,-0.016,0.013,-0.039,16.69,157.89,0
56705.0,0.011,0.013,-0.008,43.85,-125.53,0
56710.0,0.003,0.005,-0.01,26.88,-161.01,0
56715.0,0.023,0.025,0.012,43.99,-62.87,0
56720.0,0.013,-0.004,-0.0,-18.0,-91.75,0
56725.0,-0.013,0.022,0.016,46.33,39.17,0
56730.0,-0.001,-0.021,-0.015,-54.77,174.75,0
56735.0,0.013,-0.004,0.019,-10.5,-34.74,0
56740.0,-0.011,0.001,-0.005,2.64,115.38,0
56745.0,-0.004,0.01,-0.06,9.53,176.44,0
56750.0,0.011,0.029,0.007,66.73,-57.41,0
56755.0,-0.016,0.013,-0.003,38.12,100.07,0
56760.0,0.011,-0.019,0.014,-46.67,-37.23,0
56765.0,0.011,0.041,0.004,74.44,-67.53,0
56770.0,-0.025,0.022,0.016,36.27,57.11,0
56775.0,-0.021,0.02,-0.022,33.27,136.94,0
56780.0,0.008,0.001,0.019,1.56,-23.67,0
56785.0,-0.028,0.027,-0.008,43.13,105.31,0
56790.0,0.006,-0.016,-0.003,-68.26,-115.61,0
56795.0,-0.016,0.003,-0.012,8.4,128.19,0
56800.0,-0.001,-0.011,-0.022,-27.43,176.46,0
56805.0,-0.004,0.022,0.004,75.36,40.51,0
56810.0,-0.011,0.017,0.004,55.77,68.12,0
56815.0,0.001,-0.021,0.007,-71.89,-8.69,0
56820.0,-0.018,0.003,-0.003,9.15,98.76,0
56825.0,-0.006,0.005,-0.024,12.02,165.83,0
56830.0,0.001,-0.007,0.014,-25.31,-4.25,0
56835.0,-0.009,-0.007,0.012,-24.73,36.42,0
56840.0,0.008,0.003,0.024,6.75,-19.25,0
56845.0,0.015,-0.004,0.021,-9.18,-36.06,0
56850.0,-0.018,0.041,0.004,65.69,76.38,0
56855.0,0.006,0.013,-0.01,47.33,-149.71,0
56860.0,0.011,0.017,-0.003,57.64,-104.74,0
56865.0,0.008,0.027,-0.015,57.86,-150.89,0
56870.0,0.006,0.01,-0.015,32.56,-158.46,0
56875.0,0.003,-0.023,-0.022,-46.47,-171.11,0
56880.0,0.023,0.02,0.024,31.14,-43.81,0
56885.0,-0.004,0.022,-0.008,69.06,153.67,0
56890.0,-0.018,0.005,0.014,13.16,52.37,0
56895.0,-0.001,-0.009,-0.027,-18.62,177.09,0
56900.0,0.008,-0.011,-0.005,-49.58,-122.25,0
56905.0,-0.011,0.015,-0.029,25.63,159.43,0
56910.0,-0.001,0.005,0.04,7.55,1.93,0
56915.0,-0.018,-0.004,0.033,-6.39,28.68,0
56920.0,-0.011,-0.007,-0.012,-21.86,138.53,0
56925.0,-0.006,-0.009,0.026,-18.69,13.33,0
56930.0,0.013,0.013,0.028,21.9,-24.66,0
56935.0,-0.016,-0.004,0.045,-5.06,19.22,0
56940.0,0.037,0.013,0.028,15.06,-52.52,0
56945.0,-0.013,-0.007,-0.029,-11.68,155.41,0
56950.0,-0.018,-0.021,-0.022,-36.41,140.46,0
56955.0,0.006,0.01,-0.015,32.56,-158.46,0
56960.0,-0.011,-0.019,0.028,-31.48,21.1,0
56965.0,-0.03,0.01,0.014,16.99,65.1,0
56970.0,-0.009,0.001,0.028,1.08,16.77,0
56975.0,-0.013,0.005,-0.032,8.88,157.08,0
56980.0,-0.021,0.017,0.012,36.33,60.57,0
56985.0,0.001,0.044,0.031,54.84,-1.93,0
56990.0,-0.004,0.022,-0.0,80.32,96.05,0
56995.0,0.003,0.025,0.026,43.12,-7.54,0
57000.0,-0.011,0.015,0.045,17.83,13.63,0
57005.0,0.003,0.017,-0.0,78.72,-96.61,0
57010.0,0.008,0.025,-0.012,58.78,-146.39,0
57015.0,-0.021,0.005,0.009,13.38,65.89,0
57020.0,0.003,0.008,-0.015,27.06,-166.91,0
57025.0,0.013,0.029,0.002,65.8,-81.28,0
57030.0,0.001,-0.004,-0.012,-18.82,-175.21,0
57035.0,0.011,0.029,0.016,56.34,-32.97,0
57040.0,-0.011,0.003,-0.0,15.1,92.08,0
57045.0,-0.001,0.001,0.009,3.45,8.41,0
57050.0,-0.006,0.01,-0.024,21.99,165.83,0
57055.0,-0.009,0.017,-0.022,36.33,158.74,0
57060.0,-0.013,0.003,-0.029,5.27,155.41,0
57065.0,0.001,0.013,-0.01,51.33,-174.06,0
57070.0,-0.009,0.013,-0.005,51.43,121.27,0
57075.0,0.001,-0.033,0.009,-74.34,-6.45,0
57080.0,-0.004,0.025,0.033,36.32,6.46,0
57085.0,0.018,0.022,0.021,38.65,-40.08,0
57090.0,-0.006,0.008,0.043,10.17,8.19,0
57095.0,-0.025,0.02,-0.012,34.99,116.06,0
57100.0,-0.011,0.02,-0.012,50.05,138.53,0
57105.0,0.001,0.003,0.007,23.28,-8.69,0
57110.0,0.015,0.001,-0.008,1.86,-116.21,0
57115.0,0.02,0.001,0.012,1.38,-60.18,0
57120.0,-0.018,0.003,-0.005,8.91,105.97,0
57125.0,-0.004,0.017,0.024,35.99,9.05,0
57130.0,-0.001,0.034,-0.017,63.2,175.48,0
57135.0,-0.013,0.02,0.031,30.48,23.45,0
57140.0,-0.011,0.029,0.004,68.09,68.12,0
57145.0,0.008,0.027,0.016,55.75,-26.68,0
57150.0,0.015,-0.014,0.026,-24.59,-30.7,0
57155.0,-0.013,0.036,-0.029,48.71,155.41,0
57160.0,-0.013,0.01,0.007,34.13,63.02,0
57165.0,-0.011,0.008,0.016,21.47,33.75,0
57170.0,-0.021,0.005,0.012,12.79,60.57,0
57175.0,0.011,-0.009,-0.017,-24.08,-148.26,0
57180.0,-0.004,0.017,-0.02,41.02,169.14,0
57185.0,0.015,0.022,0.028,34.43,-28.53,0
57190.0,0.018,-0.004,-0.029,-7.06,-148.58,0
57195.0,-0.004,0.02,0.024,39.58,9.05,0
57200.0,-0.001,0.001,-0.022,1.46,176.46,0
57205.0,0.008,0.01,0.019,26.33,-23.67,0
57210.0,-0.011,0.001,-0.02,1.43,150.79,0
57215.0,0.001,-0.009,0.045,-11.31,-1.32,0
57220.0,0.049,0.01,0.026,10.37,-62.07,0
57225.0,0.003,-0.004,0.016,-14.2,-11.85,0
57230.0,0.023,0.029,0.002,52.26,-84.95,0
57235.0,-0.028,0.013,-0.027,18.03,133.99,0
57240.0,-0.009,0.022,0.009,60.44,42.93,0
57245.0,-0.006,0.032,-0.029,46.78,168.09,0
57250.0,0.003,0.013,0.036,19.35,-5.52,0
57255.0,-0.006,-0.016,-0.058,-15.56,173.94,0
57260.0,-0.016,0.001,0.016,1.41,43.86,0
57265.0,-0.013,0.022,-0.022,40.73,148.73,0
57270.0,0.015,0.032,0.021,50.45,-36.06,0
57275.0,0.015,-0.007,0.004,-22.47,-74.09,0
57280.0,-0.032,0.015,0.028,19.1,48.9,0
57285.0,-0.004,0.003,-0.029,5.74,172.66,0
57290.0,-0.004,0.001,0.004,5.53,40.51,0
57295.0,0.003,0.034,-0.008,76.28,-155.64,0
57300.0,0.015,0.017,-0.02,34.83,-141.77,0
57305.0,0.006,0.022,0.05,23.76,-6.66,0
57310.0,-0.018,0.025,-0.017,44.48,133.44,0
57315.0,-0.016,0.008,-0.0,26.21,91.45,0
57320.0,0.008,-0.009,0.019,-23.77,-23.67,0
57325.0,0.013,0.005,0.019,13.18,-34.74,0
57330.0,-0.004,0.003,-0.029,5.74,172.66,0
57335.0,0.006,-0.031,-0.036,-39.73,-170.88,0
57340.0,-0.016,-0.007,0.014,-17.48,48.38,0
57345.0,-0.037,0.01,-0.005,15.08,97.92,0
57350.0,0.015,0.013,-0.024,23.51,-147.67,0
57355.0,-0.018,0.001,0.012,1.49,57.43,0
57360.0,0.018,-0.009,0.021,-18.07,-40.08,0
57365.0,-0.013,0.01,-0.039,13.91,161.0,0
57370.0,0.003,-0.002,-0.0,-27.98,-96.61,0
57375.0,-0.009,-0.035,-0.0,-76.41,92.67,0
57380.0,0.006,-0.014,0.021,-32.18,-15.4,0
57385.0,-0.018,-0.016,0.014,-35.31,52.37,0
57390.0,-0.001,-0.002,0.016,-6.38,4.74,0
57395.0,-0.013,0.008,0.031,13.01,23.45,0
57400.0,0.013,-0.04,-0.036,-46.14,-160.29,0
57405.0,0.001,0.02,0.021,42.95,-2.81,0
57410.0,-0.018,-0.007,0.024,-12.57,37.58,0
57415.0,0.027,0.02,-0.015,32.37,-118.34,0
57420.0,-0.001,-0.007,-0.008,-40.7,169.85,0
57425.0,0.02,-0.007,-0.005,-17.63,-104.41,0
57430.0,-0.001,0.027,0.016,58.6,4.74,0
57435.0,0.003,-0.033,-0.024,-53.28,-171.98,0
57440.0,0.006,0.008,-0.032,13.58,-169.53,0
57445.0,-0.016,0.015,0.026,26.2,31.22,0
57450.0,0.011,0.008,0.009,28.88,-49.15,0
57455.0,-0.006,0.008,-0.012,29.27,153.58,0
57460.0,0.008,0.02,0.038,26.94,-12.23,0
57465.0,0.02,0.001,0.002,1.58,-84.35,0
57470.0,0.011,0.005,-0.008,22.29,-125.53,0
57475.0,-0.001,0.01,0.007,55.68,11.31,0
57480.0,-0.004,0.003,-0.015,10.97,165.74,0
57485.0,-0.011,0.025,0.014,54.1,38.05,0
57490.0,-0.001,-0.009,-0.008,-49.5,169.85,0
57495.0,-0.013,-0.016,0.016,-37.51,39.17,0
57500.0,0.02,0.017,0.002,40.48,-84.35,0
57505.0,0.011,0.017,0.014,44.63,-37.23,0
57510.0,-0.001,-0.014,-0.01,-53.9,172.25,0
57515.0,0.011,-0.007,-0.003,-31.11,-104.74,0
57520.0,0.008,0.003,-0.036,4.53,-167.24,0
57525.0,0.003,0.003,-0.003,33.72,-129.14,0
57530.0,0.001,0.005,0.031,9.87,-1.93,0
57535.0,0.001,-0.023,0.007,-73.64,-8.69,0
57540.0,0.003,-0.009,-0.008,-47.3,-155.64,0
57545.0,-0.009,-0.009,-0.0,-46.53,92.67,0
57550.0,0.011,0.001,0.055,0.57,-10.99,0
57555.0,-0.006,-0.002,-0.01,-8.9,148.36,0
57560.0,-0.006,0.008,-0.015,25.83,157.4,0
57565.0,0.035,0.036,0.021,41.99,-58.53,0
57570.0,0.001,0.01,-0.01,45.3,-174.06,0
57575.0,-0.006,-0.047,0.009,-76.86,33.8,0
57580.0,0.015,0.017,0.012,41.95,-53.08,0
57585.0,-0.011,0.005,-0.032,9.1,160.87,0
57590.0,0.027,0.015,0.007,27.89,-76.08,0
57595.0,0.003,0.015,-0.008,60.86,-155.64,0
57600.0,-0.009,0.008,0.007,35.37,51.53,0
57605.0,-0.011,0.015,0.019,34.51,30.24,0
57610.0,0.011,-0.014,-0.003,-51.52,-104.74,0
57615.0,-0.016,-0.007,-0.034,-10.05,155.13,0
57620.0,-0.037,0.01,-0.027,12.46,125.65,0
57625.0,0.013,-0.009,0.033,-14.22,-21.44,0
57630.0,0.008,0.022,-0.022,43.33,-159.47,0
57635.0,-0.006,-0.007,-0.003,-44.46,114.44,0
57640.0,-0.021,0.005,0.012,12.79,60.57,0
57645.0,-0.009,0.015,0.002,59.56,76.84,0
57650.0,-0.001,0.034,-0.012,69.94,173.74,0
57655.0,0.003,-0.002,0.031,-3.4,-6.37,0
57660.0,0.001,0.02,-0.005,74.98,-168.69,0
57665.0,0.006,-0.007,-0.027,-13.61,-167.71,0
57670.0,0.013,0.036,0.002,70.16,-81.28,0
57675.0,0.011,-0.004,0.012,-15.08,-42.53,0
57680.0,-0.001,0.005,0.002,65.71,34.2,0
57685.0,0.015,0.044,0.026,55.35,-30.7,0
57690.0,0.006,0.005,0.019,15.23,-17.26,0
57695.0,-0.004,-0.014,0.016,-39.44,12.91,0
57700.0,-0.016,0.027,-0.012,53.36,128.19,0
57705.0,0.003,0.013,-0.003,70.55,-129.14,0
57710.0,-0.001,0.022,-0.048,24.59,178.39,0
57715.0,-0.009,-0.014,-0.012,-42.57,145.38,0
57720.0,0.025,-0.002,0.026,-2.92,-43.92,0
57725.0,-0.001,-0.004,0.007,-31.44,11.31,0
57730.0,-0.018,0.01,-0.015,23.45,129.18,0
57735.0,0.023,0.003,-0.012,6.54,-118.71,0
57740.0,-0.013,0.02,-0.012,47.31,132.86,0
57745.0,0.015,0.01,0.04,13.22,-20.92,0
57750.0,-0.016,0.022,0.012,48.55,53.64,0
57755.0,0.011,0.015,0.036,21.93,-16.64,0
57760.0,-0.011,-0.011,-0.003,-45.32,104.33,0
57765.0,0.003,0.008,-0.005,51.22,-146.51,0
57770.0,-0.006,0.015,-0.003,65.66,114.44,0
57775.0,0.008,-0.004,0.014,-14.63,-30.48,0
57780.0,-0.009,-0.021,0.007,-62.54,51.53,0
57785.0,-0.004,0.02,0.026,36.95,8.23,0
57790.0,-0.001,-0.016,0.031,-27.78,2.53,0
57795.0,-0.009,-0.004,0.024,-9.59,19.94,0
57800.0,-0.006,-0.011,0.007,-51.27,42.17,0
57805.0,-0.001,-0.033,-0.012,-69.32,173.74,0
57810.0,0.011,-0.004,-0.041,-5.69,-165.52,0
57815.0,0.006,-0.016,0.002,-69.19,-71.09,0
57820.0,0.003,-0.007,0.031,-12.09,-6.37,0
57825.0,-0.016,-0.019,0.021,-35.21,36.63,0
57830.0,-0.013,-0.021,-0.012,-49.1,132.86,0
57835.0,-0.037,-0.011,0.002,-17.0,86.93,0
57840.0,-0.001,0.01,-0.046,12.45,178.31,0
57845.0,0.003,0.013,-0.012,44.31,-164.49,0
57850.0,0.001,0.001,-0.0,26.69,-110.97,0
57855.0,0.011,-0.009,0.036,-13.67,-16.64,0
57860.0,0.001,-0.002,0.014,-7.47,-4.25,0
57865.0,-0.001,0.036,0.031,49.86,2.53,0
57870.0,0.023,-0.002,0.012,-4.14,-62.87,0
57875.0,0.003,0.005,-0.01,26.88,-161.01,0
57880.0,0.011,0.017,-0.039,23.34,-164.66,0
57885.0,-0.011,-0.016,-0.015,-41.41,143.48,0
57890.0,0.013,0.001,0.019,1.4,-34.74,0
57895.0,0.008,-0.007,0.007,-31.86,-50.47,0
57900.0,0.008,0.041,-0.024,58.09,-161.34,0
57905.0,0.003,0.003,-0.0,40.52,-96.61,0
57910.0,-0.03,0.027,-0.003,41.67,95.3,0
57915.0,-0.001,-0.004,0.024,-10.17,3.3,0
57920.0,0.006,0.01,0.021,24.8,-15.4,0
57925.0,0.003,0.046,-0.034,53.49,-174.22,0
57930.0,-0.009,-0.002,-0.043,-2.37,168.89,0
57935.0,0.025,0.005,0.007,11.67,-74.8,0
57940.0,0.006,0.001,0.036,0.89,-9.32,0
57945.0,0.015,0.027,0.04,31.94,-20.92,0
57950.0,-0.023,0.003,-0.008,6.98,108.31,0
57955.0,0.011,-0.009,-0.005,-37.36,-116.04,0
57960.0,-0.001,-0.016,0.009,-60.2,8.41,0
57965.0,-0.018,0.039,0.002,64.88,83.71,0
57970.0,0.018,0.001,0.028,0.96,-32.13,0
57975.0,0.011,0.01,-0.01,34.83,-133.22,0
57980.0,0.011,0.017,-0.008,53.01,-125.53,0
57985.0,-0.016,0.008,0.024,15.29,33.73,0
57990.0,-0.004,-0.021,0.009,-64.71,22.23,0
57995.0,-0.013,-0.007,-0.0,-26.42,91.71,0
58000.0,-0.011,-0.021,-0.008,-57.63,124.74,0
58005.0,-0.001,0.008,0.016,25.25,4.74,0
58010.0,-0.004,0.01,0.009,45.63,22.23,0
58015.0,0.003,-0.011,-0.01,-47.25,-161.01,0
58020.0,0.018,0.001,0.009,1.6,-62.72,0
58025.0,-0.018,0.003,0.043,3.64,22.99,0
58030.0,-0.006,0.025,-0.027,41.77,167.05,0
58035.0,-0.006,-0.002,-0.039,-2.68,170.98,0
58040.0,0.003,0.027,0.007,74.21,-26.83,0
58045.0,-0.018,0.027,-0.015,49.01,129.18,0
58050.0,0.008,-0.009,0.016,-26.22,-26.68,0
58055.0,-0.001,0.022,-0.008,70.79,169.85,0
58060.0,0.008,-0.021,-0.008,-61.95,-132.68,0
58065.0,0.023,-0.009,-0.027,-14.45,-139.81,0
58070.0,0.008,0.008,0.031,13.68,-14.98,0
58075.0,0.001,-0.011,-0.003,-75.37,-159.62,0
58080.0,0.001,0.022,-0.005,76.55,-168.69,0
58085.0,-0.001,0.008,-0.022,19.4,176.46,0
58090.0,-0.009,0.01,-0.005,45.41,121.27,0
58095.0,0.006,0.027,0.045,30.61,-7.36,0
58100.0,0.013,-0.002,-0.003,-7.86,-102.12,0
58105.0,0.006,0.01,-0.008,46.67,-142.46,0
58110.0,0.008,0.003,-0.008,14.79,-132.68,0
58115.0,-0.009,-0.007,0.019,-17.82,24.48,0
58120.0,0.011,0.005,-0.029,9.79,-159.98,0
58125.0,0.003,0.001,-0.0,9.19,-96.61,0
58130.0,-0.011,0.02,-0.01,53.1,132.37,0
58135.0,0.003,0.01,-0.046,12.42,-175.72,0
58140.0,0.013,0.022,-0.024,38.69,-151.88,0
58145.0,0.015,0.025,0.014,49.68,-47.8,0
58150.0,-0.023,0.036,-0.029,44.54,141.82,0
58155.0,-0.016,0.015,0.004,42.44,74.4,0
58160.0,-0.021,-0.033,0.012,-54.45,60.57,0
58165.0,0.006,0.036,-0.005,77.93,-131.67,0
58170.0,-0.006,0.027,-0.005,73.35,130.16,0
58175.0,-0.004,-0.007,0.012,-28.57,17.96,0
58180.0,0.011,-0.021,-0.008,-58.14,-125.53,0
58185.0,-0.016,0.003,-0.017,7.23,137.5,0
58190.0,0.001,-0.021,0.04,-27.5,-1.47,0
58195.0,0.02,0.015,0.031,22.09,-33.31,0
58200.0,0.018,0.005,0.019,11.68,-43.5,0
58205.0,0.015,0.003,-0.003,10.68,-100.28,0
58210.0,-0.001,0.013,-0.01,51.22,172.25,0
58215.0,-0.004,0.017,0.004,71.56,40.51,0
58220.0,0.001,-0.014,0.043,-17.91,-1.39,0
58225.0,-0.009,-0.004,0.016,-12.91,27.56,0
58230.0,0.003,0.041,0.043,43.93,-4.6,0
58235.0,-0.009,0.01,-0.01,37.66,139.43,0
58240.0,-0.042,0.015,-0.039,14.63,132.62,0
58245.0,0.003,-0.004,0.002,-46.81,-59.82,0
58250.0,0.008,-0.007,0.016,-19.89,-26.68,0
58255.0,-0.023,-0.021,0.036,-26.41,32.82,0
58260.0,0.008,-0.011,-0.003,-52.74,-108.76,0
58265.0,-0.03,0.013,-0.005,22.31,99.78,0
58270.0,-0.006,-0.002,-0.02,-5.12,162.55,0
58275.0,0.023,0.041,-0.01,59.1,-113.83,0
58280.0,-0.021,-0.019,0.004,-41.56,77.92,0
58285.0,-0.016,0.013,0.009,34.54,59.72,0
58290.0,0.006,0.017,0.009,57.88,-32.4,0
58295.0,-0.04,0.015,0.009,20.13,76.97,0
58300.0,-0.025,0.005,0.012,10.88,65.42,0
58305.0,0.001,-0.007,0.033,-11.3,-1.79,0
58310.0,-0.006,0.01,0.012,37.72,27.97,0
58315.0,-0.006,-0.004,0.024,-9.86,14.63,0
58320.0,-0.018,0.029,-0.008,56.16,112.71,0
58325.0,-0.013,0.034,-0.043,36.84,162.96,0
58330.0,0.001,0.022,0.014,57.64,-4.25,0
58335.0,-0.006,0.022,0.021,45.11,16.2,0
58340.0,0.032,-0.011,0.016,-17.55,-63.04,0
58345.0,0.011,-0.002,0.021,-4.44,-26.65,0
58350.0,-0.006,0.013,0.016,35.64,20.59,0
58355.0,0.008,0.008,-0.039,11.07,-168.01,0
58360.0,-0.013,0.036,-0.0,69.92,91.71,0
58365.0,-0.03,-0.009,0.002,-16.65,86.2,0
58370.0,-0.016,0.015,0.028,24.73,29.03,0
58375.0,-0.006,0.005,0.004,35.3,54.45,0
58380.0,0.003,-0.016,0.012,-53.31,-16.52,0
58385.0,-0.011,-0.021,-0.003,-61.74,104.33,0
58390.0,0.013,0.003,0.014,8.79,-42.96,0
58395.0,0.015,-0.026,0.007,-56.86,-66.23,0
58400.0,0.003,0.02,-0.01,61.85,-161.01,0
58405.0,0.006,-0.021,0.004,-70.83,-53.0,0
58410.0,-0.023,-0.007,-0.0,-16.13,90.99,0
58415.0,0.001,-0.009,0.016,-28.81,-3.63,0
58420.0,-0.009,0.001,-0.024,1.24,160.67,0
58425.0,-0.006,0.013,-0.032,21.31,168.97,0
58430.0,0.013,0.025,0.007,59.09,-62.46,0
58435.0,-0.028,-0.007,-0.017,-11.49,121.78,0
58440.0,0.037,0.008,0.009,11.49,-76.05,0
58445.0,0.003,0.025,-0.02,50.99,-170.04,0
58450.0,0.006,0.003,-0.017,9.26,-161.24,0
58455.0,-0.016,-0.011,0.024,-21.95,33.73,0
58460.0,0.003,-0.026,-0.036,-35.25,-174.6,0
58465.0,0.008,0.015,-0.039,20.66,-168.01,0
58470.0,-0.021,-0.047,-0.043,-44.54,154.75,0
58475.0,-0.009,0.032,-0.005,72.5,121.27,0
58480.0,-0.016,0.003,0.021,6.39,36.63,0
58485.0,-0.023,0.013,0.043,14.5,28.21,0
58490.0,0.023,0.008,0.033,10.93,-34.29,0
58495.0,0.013,-0.002,-0.017,-4.87,-142.83,0
58500.0,0.003,0.022,-0.022,44.86,-171.11,0
58505.0,0.011,0.001,-0.012,1.96,-139.37,0
58510.0,-0.023,-0.002,-0.015,-3.85,122.8,0
58515.0,-0.013,-0.009,0.016,-23.14,39.17,0
58520.0,-0.016,-0.031,0.038,-36.68,22.52,0
58525.0,0.03,0.013,0.028,16.96,-46.42,0
58530.0,-0.004,0.029,-0.01,70.01,159.39,0
58535.0,-0.018,0.003,-0.005,8.91,105.97,0
58540.0,-0.018,0.01,0.007,27.65,69.47,0
58545.0,-0.042,-0.026,0.012,-30.58,74.62,0
58550.0,-0.006,0.013,0.012,43.72,27.97,0
58555.0,-0.009,0.022,0.031,34.73,15.53,0
58560.0,-0.001,-0.033,-0.005,-80.76,165.34,0
58565.0,0.011,0.022,-0.0,64.34,-92.15,0
58570.0,0.018,-0.021,0.014,-42.85,-51.87,0
58575.0,-0.009,0.015,-0.005,56.2,121.27,0
58580.0,0.006,0.017,-0.01,56.3,-149.71,0
58585.0,0.015,0.036,-0.012,61.56,-128.77,0
58590.0,-0.013,0.008,0.04,10.34,18.3,0
58595.0,-0.001,0.034,-0.0,87.62,106.34,0
58600.0,0.027,0.013,0.026,18.38,-46.54,0
58605.0,-0.03,0.022,0.016,32.84,61.46,0
58610.0,0.008,-0.014,-0.005,-54.86,-122.25,0
58615.0,-0.004,0.029,-0.01,70.01,159.39,0
58620.0,0.025,0.008,-0.017,14.33,-124.48,0
58625.0,0.011,0.01,-0.003,42.72,-104.74,0
58630.0,0.011,-0.009,0.009,-32.73,-49.15,0
58635.0,0.025,0.005,0.002,12.04,-85.43,0
58640.0,0.006,0.005,0.007,30.88,-40.65,0
58645.0,0.006,0.013,0.007,54.48,-40.65,0
58650.0,-0.016,0.017,-0.0,47.76,91.45,0
58655.0,-0.001,0.008,0.033,13.14,2.35,0
58660.0,-0.011,-0.007,0.002,-30.79,79.65,0
58665.0,-0.001,-0.021,0.007,-71.76,11.31,0
58670.0,0.008,-0.016,0.033,-25.4,-13.94,0
58675.0,-0.028,0.034,0.043,33.81,32.97,0
58680.0,0.006,0.015,0.019,37.23,-17.26,0
58685.0,0.001,-0.004,-0.041,-5.87,-178.55,0
58690.0,0.006,0.029,-0.005,75.09,-131.67,0
58695.0,0.003,-0.007,-0.02,-18.45,-170.04,0
58700.0,0.027,0.008,0.009,15.01,-71.46,0
58705.0,-0.023,0.027,-0.005,48.87,102.76,0
58710.0,0.003,0.02,-0.003,77.35,-129.14,0
58715.0,0.006,-0.023,0.026,-41.33,-12.66,0
58720.0,0.003,-0.038,0.033,-48.58,-5.92,0
58725.0,-0.009,0.032,0.004,73.14,62.79,0
58730.0,0.015,-0.014,0.033,-20.71,-24.94,0
58735.0,0.006,0.032,0.009,71.06,-32.4,0
58740.0,0.042,0.025,-0.043,22.12,-136.18,0
58745.0,-0.001,0.005,0.007,37.7,11.31,0
58750.0,0.032,0.02,0.012,29.97,-70.21,0
58755.0,0.001,0.017,-0.01,59.93,-174.06,0
58760.0,-0.011,0.013,-0.017,31.63,147.49,0
58765.0,-0.006,-0.002,0.036,-2.92,9.82,0
58770.0,0.02,0.013,-0.0,31.82,-91.13,0
58775.0,-0.004,-0.011,-0.01,-46.96,159.39,0
58780.0,0.023,0.008,-0.015,16.01,-123.17,0
58785.0,-0.016,0.001,0.009,1.76,59.72,0
58790.0,-0.021,0.034,-0.02,50.26,133.63,0
58795.0,0.011,-0.011,0.007,-42.17,-57.41,0
58800.0,-0.04,0.048,-0.0,50.69,90.57,0
58805.0,-0.025,-0.011,-0.055,-10.6,155.48,0
58810.0,0.051,-0.047,-0.017,-41.17,-108.49,0
58815.0,-0.104,0.003,0.021,1.59,78.54,0
58820.0,0.025,-0.019,0.04,-21.41,-31.79,0
58825.0,-0.054,0.025,-0.039,20.24,125.62,0
58830.0,0.042,0.001,-0.017,0.71,-112.35,0
58835.0,-0.049,-0.002,-0.032,-1.8,122.63,0
58840.0,-0.018,0.036,0.012,59.48,57.43,0
58845.0,0.054,0.001,0.009,0.59,-80.3,0
58850.0,-0.042,-0.011,0.033,-12.03,51.78,0
58855.0,0.011,0.017,0.04,22.56,-14.75,0
58860.0,0.003,0.013,0.002,72.42,-59.82,0
58865.0,0.018,0.013,0.036,17.51,-26.62,0
58870.0,-0.004,0.01,0.012,39.8,17.96,0
58875.0,-0.004,-0.002,0.004,-17.63,40.51,0
58880.0,-0.042,-0.004,0.004,-5.71,84.04,0
58885.0,-0.004,-0.007,0.014,-24.61,15.03,0
58890.0,-0.018,0.005,-0.017,12.1,133.44,0
58895.0,-0.025,0.008,0.033,10.52,37.37,0
58900.0,0.011,0.013,0.004,47.49,-67.53,0
58905.0,-0.006,0.005,0.024,12.39,14.63,0
58910.0,0.008,-0.002,0.016,-5.72,-26.68,0
58915.0,-0.011,-0.002,-0.0,-9.52,92.08,0
58920.0,0.013,-0.021,0.002,-57.91,-81.28,0
58925.0,-0.001,-0.007,-0.008,-40.7,169.85,0
58930.0,-0.011,0.015,0.016,37.18,33.75,0
58935.0,-0.009,0.015,0.019,35.91,24.48,0
58940.0,0.006,0.017,-0.0,71.37,-93.91,0
58945.0,-0.013,0.022,0.05,23.18,14.96,0
58950.0,0.023,0.02,0.004,40.59,-79.0,0
58955.0,-0.011,-0.011,-0.058,-10.97,169.3,0
58960.0,0.02,0.001,-0.022,1.07,-137.38,0
58965.0,0.001,0.013,0.021,30.61,-2.81,0
58970.0,0.011,-0.019,0.002,-59.85,-79.35,0
58975.0,-0.018,0.005,-0.01,14.5,118.84,0
58980.0,0.006,0.02,-0.0,73.5,-93.91,0
58985.0,0.003,-0.035,0.007,-77.86,-26.83,0
58990.0,0.008,0.025,-0.017,52.17,-154.4,0
58995.0,0.013,0.001,0.007,2.18,-62.46,0
59000.0,-0.004,-0.002,0.036,-2.94,6.03,0
59005.0,-0.009,-0.004,-0.005,-22.95,121.27,0
59010.0,0.008,0.029,0.016,57.99,-26.68,0
59015.0,-0.004,0.005,0.016,17.67,12.91,0
59020.0,0.032,-0.009,-0.012,-14.67,-111.04,0
59025.0,-0.013,-0.004,0.026,-8.25,27.2,0
59030.0,-0.011,0.005,0.007,22.57,58.18,0
59035.0,-0.004,0.01,0.009,45.63,22.23,0
59040.0,-0.018,0.013,-0.01,31.21,118.84,0
59045.0,-0.023,0.013,0.012,26.02,63.19,0
59050.0,0.015,0.003,-0.005,10.3,-108.61,0
59055.0,0.015,0.005,0.045,6.4,-18.86,0
59060.0,-0.001,0.027,0.014,62.45,5.55,0
59065.0,0.011,-0.033,-0.0,-72.14,-92.15,0
59070.0,0.001,0.001,0.016,1.95,-3.63,0
59075.0,-0.018,0.008,-0.058,7.28,162.61,0
59080.0,-0.004,0.029,-0.034,40.64,173.69,0
59085.0,-0.013,0.01,0.026,19.17,27.2,0
59090.0,0.006,0.02,-0.015,51.16,-158.46,0
59095.0,-0.009,0.013,-0.008,47.66,131.6,0
59100.0,-0.021,-0.023,-0.008,-46.92,110.28,0
59105.0,0.023,-0.002,0.009,-4.31,-67.88,0
59110.0,0.02,-0.009,0.031,-13.78,-33.31,0
59115.0,0.001,-0.004,0.007,-31.65,-8.69,0
59120.0,-0.021,0.001,0.038,0.74,28.41,0
59125.0,-0.021,0.008,-0.053,7.75,158.87,0
59130.0,-0.009,0.005,-0.0,32.03,92.67,0
59135.0,-0.021,-0.007,0.047,-7.3,23.36,0
59140.0,-0.004,-0.023,0.016,-54.33,12.91,0
59145.0,0.013,0.022,-0.024,38.69,-151.88,0
59150.0,-0.011,0.005,0.021,12.66,27.34,0
59155.0,0.015,-0.009,0.021,-19.02,-36.06,0
59160.0,-0.011,0.005,0.024,11.64,24.91,0
59165.0,0.02,0.005,0.028,8.74,-35.48,0
59170.0,-0.001,-0.009,0.009,-44.18,8.41,0
59175.0,0.001,0.001,0.007,4.65,-8.69,0
59180.0,-0.001,0.025,0.002,84.37,34.2,0
59185.0,-0.021,0.005,-0.053,5.37,158.87,0
59190.0,-0.021,0.013,0.007,30.11,71.7,0
59195.0,0.008,-0.002,0.007,-9.77,-50.47,0
59200.0,-0.011,-0.023,-0.055,-22.47,168.85,0
59205.0,0.011,-0.014,-0.005,-49.45,-116.04,0
59210.0,-0.018,-0.014,-0.0,-37.3,91.26,0
59215.0,0.001,0.003,-0.034,4.97,-178.25,0
59220.0,-0.021,0.005,-0.012,12.58,121.09,0
59225.0,-0.018,0.001,-0.0,1.77,91.26,0
59230.0,0.015,0.029,0.033,38.72,-24.94,0
59235.0,0.011,0.008,-0.032,13.1,-161.39,0
59240.0,-0.016,0.017,0.002,47.54,82.76,0
59245.0,0.008,0.008,-0.003,41.72,-108.76,0
59250.0,-0.011,0.02,0.019,42.24,30.24,0
59255.0,0.025,-0.004,-0.005,-9.41,-101.73,0
59260.0,-0.006,0.029,-0.022,52.11,164.36,0
59265.0,0.015,-0.007,0.012,-18.97,-53.08,0
59270.0,0.013,0.001,0.012,1.84,-48.34,0
59275.0,-0.004,0.027,0.009,69.76,22.23,0
59280.0,0.02,0.022,-0.017,39.84,-130.36,0
59285.0,-0.001,0.032,0.002,85.64,34.2,0
59290.0,-0.023,-0.002,-0.0,-4.58,90.99,0
59295.0,0.006,-0.004,-0.015,-14.92,-158.46,0
59300.0,-0.006,-0.016,0.028,-29.2,12.24,0
59305.0,0.023,-0.007,-0.024,-11.28,-137.14,0
59310.0,0.003,0.001,0.002,8.01,-59.82,0
59315.0,-0.006,0.017,0.047,19.88,7.37,0
59320.0,0.013,-0.016,-0.02,-34.6,-146.36,0
59325.0,0.013,-0.016,0.031,-25.9,-22.95,0
59330.0,-0.001,0.046,-0.01,77.67,172.25,0
59335.0,-0.011,0.005,-0.024,11.33,155.81,0
59340.0,0.001,-0.004,0.026,-9.25,-2.29,0
59345.0,0.001,0.029,0.033,41.47,-1.79,0
59350.0,-0.011,0.003,0.014,9.45,38.05,0
59355.0,0.011,0.008,0.016,21.65,-32.97,0
59360.0,-0.025,-0.019,0.014,-32.76,61.1,0
59365.0,0.001,0.005,-0.039,7.86,-178.46,0
59370.0,-0.013,-0.021,-0.008,-53.85,119.63,0
59375.0,-0.009,0.025,0.007,66.0,51.53,0
59380.0,0.006,-0.002,0.062,-1.69,-5.38,0
59385.0,-0.023,-0.002,-0.012,-4.03,118.37,0
59390.0,-0.013,0.015,0.004,46.76,71.77,0
59395.0,0.006,0.01,-0.029,18.84,-168.69,0
59400.0,0.032,-0.011,-0.005,-19.31,-99.16,0
59405.0,-0.009,0.005,-0.0,32.03,92.67,0
59410.0,0.006,-0.021,0.002,-73.65,-71.09,0
59415.0,-0.001,-0.007,0.009,-35.52,8.41,0
59420.0,-0.013,0.034,-0.01,63.96,126.81,0
59425.0,0.03,0.005,0.024,8.02,-51.66,0
59430.0,0.003,0.01,0.016,31.23,-11.85,0
59435.0,0.015,0.01,0.014,25.99,-47.8,0
59440.0,-0.006,0.01,-0.022,23.98,164.36,0
59445.0,-0.006,0.02,-0.01,59.28,148.36,0
59450.0,0.03,0.003,0.028,4.11,-46.42,0
59455.0,-0.023,-0.016,-0.015,-30.73,122.8,0
59460.0,-0.013,-0.004,-0.0,-17.6,91.71,0
59465.0,-0.035,0.013,-0.015,18.31,112.94,0
59470.0,0.001,0.017,-0.012,54.37,-175.21,0
59475.0,-0.009,0.008,0.04,10.64,11.96,0
59480.0,-0.011,-0.016,0.062,-14.46,10.02,0
59485.0,0.03,0.022,-0.0,36.6,-90.77,0
59490.0,-0.025,-0.009,-0.01,-18.35,111.52,0
59495.0,-0.016,-0.002,-0.024,-3.62,147.14,0
59500.0,-0.001,0.013,0.024,27.98,3.3,0
59505.0,0.003,0.025,-0.0,81.97,-96.61,0
59510.0,0.003,0.013,0.019,33.31,-10.37,0
59515.0,-0.042,0.017,0.009,21.91,77.69,0
59520.0,0.018,0.008,0.026,13.83,-34.46,0
59525.0,-0.04,0.01,0.014,13.55,70.6,0
59530.0,0.015,0.01,-0.0,33.34,-91.48,0
59535.0,0.008,-0.016,-0.015,-43.79,-150.89,0
59540.0,0.027,-0.023,-0.043,-24.47,-147.82,0
59545.0,0.023,0.034,0.055,29.95,-22.45,0
59550.0,-0.001,0.041,0.007,80.48,11.31,0
59555.0,-0.011,0.003,-0.017,8.26,147.49,0
59560.0,0.027,0.001,0.012,1.08,-67.08,0
59565.0,0.006,-0.04,0.038,-46.31,-8.74,0
59570.0,0.02,-0.033,0.043,-34.91,-25.31,0
59575.0,0.068,0.094,0.043,49.45,-57.9,0
59580.0,-0.076,-0.083,-0.12,-30.39,147.82,0
59585.0,0.157,-0.215,0.251,-35.99,-31.97,0
59590.0,0.037,0.113,0.146,36.96,-14.24,0
59595.0,-0.308,-0.145,-0.458,-14.78,146.08,0
59600.0,0.475,0.436,0.517,31.86,-42.59,0
59605.0,-0.246,-0.387,-0.163,-52.72,123.61,0
59610.0,0.011,0.159,-0.115,53.86,-174.74,0
59615.0,0.037,-0.016,0.079,-10.56,-25.18,0
59620.0,-0.229,0.271,-0.01,49.81,92.5,0
59625.0,0.219,-0.397,0.057,-60.32,-75.39,0
59630.0,-0.076,0.556,0.064,79.88,49.63,0
59635.0,-0.353,0.044,-0.166,6.38,115.11,0
59640.0,0.655,0.214,0.007,18.07,-89.41,0
59645.0,-0.854,-0.344,-0.096,-21.83,96.43,0
59650.0,0.595,0.022,0.268,1.94,-65.76,0
59655.0,-0.011,0.324,-0.41,38.3,178.47,0
59660.0,0.379,0.372,0.287,38.01,-52.9,0
59665.0,-0.009,-0.383,0.222,-59.82,2.2,0
59670.0,0.243,0.434,0.225,52.68,-47.23,0
59675.0,-0.238,-0.327,-0.285,-41.37,140.12,0
59680.0,0.382,0.496,0.146,50.53,-69.12,0
59685.0,-0.571,-0.576,0.016,-45.25,88.36,0
59690.0,0.42,0.273,-0.156,31.4,-110.38,0
59695.0,0.221,0.333,0.198,48.28,-48.14,0
59700.0,0.317,0.472,0.038,55.93,-83.18,0
59705.0,-0.495,-0.383,0.203,-35.58,67.67,0
59710.0,0.315,0.439,0.093,53.21,-73.54,0
59715.0,-0.428,-0.536,0.119,-50.36,74.41,0
59720.0,0.286,0.477,-0.18,54.69,-122.18,0
59725.0,-0.437,-0.543,0.206,-48.34,64.82,0
59730.0,0.339,-0.165,0.124,-24.54,-69.87,0
59735.0,0.109,0.235,0.32,34.8,-18.75,0
59740.0,0.274,-0.224,-0.034,-39.12,-97.06,0
59745.0,-0.578,0.489,0.081,39.94,82.03,0
59750.0,0.41,-0.323,-0.041,-38.03,-95.72,0
59755.0,-0.416,0.233,0.112,28.41,74.9,0
59760.0,0.272,-0.306,-0.07,-47.49,-104.42,0
59765.0,-0.42,0.484,0.184,46.54,66.36,0
59770.0,0.274,-0.177,0.036,-32.59,-82.61,0
59775.0,0.099,0.25,0.261,41.83,-20.84,0
59780.0,0.001,-0.26,0.057,-77.64,-1.04,0
59785.0,0.09,0.285,0.179,54.94,-26.58,0
59790.0,0.003,-0.181,-0.005,-88.04,-146.51,0
59795.0,0.138,0.333,0.179,55.88,-37.51,0
59800.0,-0.037,-0.311,-0.005,-83.09,97.92,0
59805.0,0.13,0.367,0.105,65.48,-51.16,0
59810.0,0.032,-0.224,-0.039,-77.37,-140.28,0
59815.0,0.126,0.422,0.232,58.0,-28.43,0
59820.0,0.037,-0.301,0.1,-70.48,-20.25,0
59825.0,0.159,0.252,0.17,47.3,-43.16,0
59830.0,-0.025,-0.292,-0.036,-81.37,145.13,0
59835.0,0.068,0.4,0.15,67.59,-24.35,0
59840.0,0.08,-0.141,-0.015,-59.95,-100.45,0
59845.0,-0.073,0.24,0.057,68.86,52.06,0
59850.0,0.073,-0.32,0.016,-76.87,-77.34,0
59855.0,0.027,0.336,0.117,70.32,-13.18,0
59860.0,0.023,-0.153,-0.024,-77.73,-137.14,0
59865.0,0.118,0.376,0.112,66.58,-46.55,0
59870.0,0.001,-0.337,-0.0,-89.81,-110.97,0
59875.0,0.094,0.23,0.115,57.21,-39.5,0
59880.0,0.018,-0.114,0.021,-76.41,-40.08,0
59885.0,-0.044,0.364,0.155,66.11,15.98,0
59890.0,0.126,-0.26,-0.02,-63.99,-98.85,0
59895.0,0.025,0.144,0.117,50.34,-12.06,0
59900.0,0.075,-0.224,0.047,-68.38,-57.75,0
59905.0,-0.042,0.424,0.055,80.77,37.57,0
59910.0,0.111,-0.203,0.004,-61.27,-87.74,0
59915.0,0.075,0.233,0.095,62.44,-38.28,0
59920.0,0.102,-0.246,-0.015,-67.35,-98.27,0
59925.0,-0.035,0.247,0.069,72.62,26.8,0
59930.0,0.027,-0.15,-0.005,-79.5,-100.73,0
59935.0,-0.023,0.154,0.019,79.1,50.69,0
59940.0,0.075,-0.134,0.038,-57.74,-63.26,0
59945.0,-0.092,0.161,0.05,56.9,61.62,0
59950.0,0.078,-0.078,-0.094,-32.8,-140.37,0
59955.0,-0.059,0.144,-0.005,67.73,95.04,0
59960.0,0.135,-0.081,0.043,-29.71,-72.46,0
59965.0,-0.104,0.166,0.071,52.67,55.6,0
59970.0,0.121,-0.081,0.021,-33.4,-80.07,0
59975.0,0.039,0.175,0.057,68.43,-34.59,0
59980.0,0.085,-0.174,0.033,-62.4,-68.67,0
59985.0,-0.092,0.226,0.007,67.69,85.8,0
59990.0,0.149,-0.15,0.088,-40.89,-59.46,0
59995.0,-0.088,0.168,0.047,59.36,61.52,0
60000.0,0.188,-0.086,0.007,-24.5,-87.93,0
60005.0,-0.14,0.082,0.074,27.35,62.23,0
60010.0,0.24,0.001,0.103,0.12,-66.9,0
60015.0,-0.111,0.039,0.024,18.83,78.08,0
60020.0,0.209,-0.102,0.047,-25.5,-77.22,0
60025.0,-0.09,0.094,0.052,42.08,59.83,0
60030.0,0.037,-0.019,-0.034,-20.34,-132.55,0
60035.0,-0.119,0.125,-0.024,45.91,101.59,0
60040.0,0.157,-0.184,-0.015,-49.43,-95.38,0
60045.0,-0.176,0.115,-0.099,29.78,119.23,0
60050.0,0.142,-0.016,-0.058,-6.02,-112.13,0
60055.0,-0.145,0.039,0.026,14.78,79.86,0
60060.0,0.212,0.001,0.079,0.14,-69.63,0
60065.0,-0.262,0.094,-0.067,19.13,104.42,0
60070.0,0.279,0.058,-0.027,11.7,-95.48,0
60075.0,-0.121,-0.038,0.009,-17.27,85.66,0
60080.0,0.133,-0.119,0.095,-36.09,-54.3,0
60085.0,-0.181,0.051,-0.072,14.63,111.76,0
60090.0,0.14,0.003,0.012,1.21,-85.27,0
60095.0,-0.107,0.08,-0.043,34.63,112.18,0
60100.0,0.104,0.044,-0.029,22.01,-105.65,0
60105.0,-0.219,-0.019,-0.06,-4.68,105.37,0
60110.0,0.2,0.07,-0.02,19.22,-95.59,0
60115.0,-0.217,-0.169,-0.125,-34.1,119.94,0
60120.0,0.173,0.063,-0.024,19.73,-97.99,0
60125.0,-0.183,-0.045,-0.027,-13.63,98.3,0
60130.0,0.238,0.08,0.036,18.29,-81.52,0
60135.0,-0.231,-0.052,-0.029,-12.61,97.18,0
60140.0,0.188,0.025,0.05,7.19,-75.12,0
60145.0,-0.229,-0.043,-0.134,-9.11,120.44,0
60150.0,0.123,0.132,-0.06,43.97,-116.07,0
60155.0,-0.26,-0.179,-0.111,-32.36,113.04,0
60160.0,0.209,0.087,0.033,22.26,-81.01,0
60165.0,-0.219,-0.224,-0.079,-43.91,109.91,0
60170.0,0.217,0.269,0.021,51.01,-84.42,0
60175.0,-0.32,-0.122,-0.072,-20.34,102.73,0
60180.0,0.248,0.048,0.033,10.97,-82.38,0
60185.0,-0.224,-0.107,-0.123,-22.77,118.67,0
60190.0,0.205,0.137,0.016,33.73,-85.43,0
60195.0,-0.301,-0.095,-0.099,-16.75,108.15,0
60200.0,0.193,-0.026,0.038,-7.48,-78.86,0
60205.0,-0.25,-0.232,-0.087,-41.17,109.08,0
60210.0,0.303,0.278,0.1,41.11,-71.69,0
60215.0,-0.289,0.137,0.17,22.26,59.57,0
60220.0,0.228,0.113,0.045,25.9,-78.84,0
60225.0,-0.353,-0.256,-0.149,-33.69,112.84,0
60230.0,0.221,0.412,-0.07,60.63,-107.51,0
60235.0,-0.38,-0.306,-0.192,-35.72,116.82,0
60240.0,0.262,0.08,-0.036,16.74,-97.89,0
60245.0,-0.372,-0.313,-0.259,-34.61,124.81,0
60250.0,0.123,0.362,-0.106,65.85,-130.65,0
60255.0,-0.329,0.264,0.268,31.87,50.89,0
60260.0,0.166,0.187,-0.027,48.05,-99.14,0
60265.0,-0.394,-0.404,-0.273,-40.12,124.75,0
60270.0,0.193,0.391,-0.149,58.09,-127.7,0
60275.0,-0.459,-0.248,-0.213,-26.15,114.96,0
60280.0,0.224,0.206,-0.113,39.49,-116.79,0
60285.0,-0.392,-0.39,0.244,-40.19,58.09,0
60290.0,0.183,0.314,0.007,59.77,-87.88,0
60295.0,0.161,0.348,0.129,59.28,-51.4,0
60300.0,0.236,0.307,-0.032,52.24,-97.62,0
60305.0,-0.411,-0.387,0.244,-39.04,59.31,0
60310.0,0.252,0.302,-0.051,49.57,-101.35,0
60315.0,-0.375,-0.344,0.261,-37.02,55.2,0
60320.0,0.183,0.319,-0.034,59.74,-100.5,0
60325.0,-0.339,-0.335,0.198,-40.44,59.67,0
60330.0,0.233,-0.232,0.026,-44.63,-83.66,0
60335.0,0.176,0.297,0.203,47.91,-40.88,0
60340.0,0.238,-0.112,-0.034,-24.97,-98.11,0
60345.0,-0.418,0.218,0.225,24.72,61.74,0
60350.0,0.286,-0.28,0.007,-44.35,-88.64,0
60355.0,-0.483,0.211,0.198,22.04,67.66,0
60360.0,0.284,-0.09,-0.077,-17.11,-105.19,0
60365.0,-0.387,0.314,0.201,35.79,62.58,0
60370.0,0.25,-0.32,-0.0,-52.02,-90.09,0
60375.0,0.214,0.278,0.246,40.46,-41.01,0
60380.0,-0.109,-0.294,-0.091,-64.17,129.95,0
60385.0,0.19,0.386,0.225,52.67,-40.25,0
60390.0,-0.021,-0.239,-0.012,-84.27,121.09,0
60395.0,0.133,0.285,0.136,56.34,-44.29,0
60400.0,-0.102,-0.246,-0.067,-63.59,123.49,0
60405.0,0.173,0.271,0.16,48.96,-47.3,0
60410.0,-0.042,-0.186,0.024,-75.49,60.76,0
60415.0,0.176,0.302,0.249,44.79,-35.27,0
60420.0,-0.085,-0.268,-0.017,-72.02,101.39,0
60425.0,0.188,0.295,0.22,45.58,-40.5,0
60430.0,-0.076,-0.272,-0.039,-72.69,117.12,0
60435.0,0.178,0.341,0.124,57.47,-55.15,0
60440.0,-0.159,-0.251,-0.192,-45.16,140.3,0
60445.0,0.145,0.25,0.162,48.92,-41.7,0
60450.0,-0.032,-0.308,0.019,-83.06,60.0,0
60455.0,0.152,0.376,0.258,51.49,-30.47,0
60460.0,-0.066,-0.268,0.059,-71.64,47.99,0
60465.0,0.219,0.271,0.222,40.99,-44.56,0
60470.0,-0.001,-0.38,0.007,-88.96,11.31,0
60475.0,0.152,0.369,0.263,50.57,-30.01,0
60480.0,-0.073,-0.162,-0.017,-65.14,103.19,0
60485.0,0.205,0.324,0.1,54.88,-63.91,0
60490.0,0.039,-0.371,0.038,-81.61,-46.06,0
60495.0,0.133,0.295,0.273,44.22,-25.96,0
60500.0,0.006,-0.253,-0.108,-66.85,-176.92,0
60505.0,0.123,0.391,0.21,58.05,-30.35,0
60510.0,-0.061,-0.284,0.024,-77.01,68.96,0
60515.0,0.164,0.408,0.208,57.0,-38.24,0
60520.0,-0.037,-0.315,-0.005,-83.2,97.92,0
60525.0,0.056,0.448,0.141,71.31,-21.72,0
60530.0,-0.018,-0.354,-0.079,-77.04,167.15,0
60535.0,0.118,0.302,0.17,55.62,-34.91,0
60540.0,-0.009,-0.253,0.04,-80.76,11.96,0
60545.0,0.082,0.369,0.122,68.29,-34.11,0
60550.0,-0.044,-0.248,-0.034,-77.32,127.34,0
60555.0,0.166,0.25,0.217,42.35,-37.39,0
60560.0,0.023,-0.342,0.04,-82.3,-29.27,0
60565.0,0.044,0.494,0.162,71.18,-15.2,0
60570.0,0.094,-0.27,0.115,-61.2,-39.5,0
60575.0,0.2,0.283,0.304,37.91,-33.34,0
60580.0,0.061,-0.394,0.024,-80.6,-68.86,0
60585.0,0.063,0.439,0.15,69.59,-22.82,0
60590.0,0.061,-0.167,-0.0,-69.97,-90.37,0
60595.0,0.035,0.295,0.131,65.29,-14.75,0
60600.0,0.104,-0.325,0.047,-70.62,-65.46,0
60605.0,0.07,0.364,0.174,62.71,-22.0,0
60610.0,-0.009,-0.27,-0.036,-82.13,166.77,0
60615.0,0.102,0.398,0.126,67.82,-38.77,0
60620.0,0.013,-0.356,0.036,-83.94,-20.12,0
60625.0,0.058,0.333,0.165,62.32,-19.54,0
60630.0,0.051,-0.232,-0.012,-77.16,-103.55,0
60635.0,0.104,0.309,0.134,61.31,-37.88,0
60640.0,0.049,-0.208,-0.012,-76.35,-104.19,0
60645.0,-0.025,0.29,0.126,66.04,11.31,0
60650.0,0.135,-0.169,0.036,-50.49,-75.27,0
60655.0,0.008,0.245,0.064,75.18,-7.29,0
60660.0,0.085,-0.277,0.036,-71.64,-67.28,0
60665.0,-0.006,0.36,0.17,64.74,2.08,0
60670.0,0.058,-0.263,0.036,-75.4,-58.74,0
60675.0,0.049,0.326,0.112,69.44,-23.57,0
60680.0,0.09,-0.246,0.069,-65.31,-52.39,0
60685.0,0.015,0.326,0.124,69.02,-7.08,0
60690.0,0.099,-0.287,0.014,-70.74,-81.99,0
60695.0,0.114,0.257,0.088,60.75,-52.17,0
60700.0,0.047,-0.227,0.021,-77.31,-65.56,0
60705.0,-0.056,0.364,0.016,80.84,73.83,0
60710.0,0.157,-0.169,0.05,-45.86,-72.34,0
60715.0,-0.004,0.178,0.105,59.42,2.05,0
60720.0,0.13,-0.184,0.028,-54.03,-77.73,0
60725.0,-0.128,0.175,-0.043,52.32,108.73,0
60730.0,0.09,-0.107,0.004,-50.06,-87.2,0
60735.0,-0.073,0.204,0.024,69.36,72.17,0
60740.0,0.185,-0.181,0.047,-43.47,-75.63,0
60745.0,-0.078,0.281,0.059,70.74,52.67,0
60750.0,0.164,-0.191,0.038,-48.63,-76.97,0
60755.0,0.006,0.175,0.155,48.46,-2.15,0
60760.0,0.138,-0.241,0.059,-58.16,-66.62,0
60765.0,-0.1,0.314,-0.024,71.94,103.74,0
60770.0,0.126,-0.093,-0.032,-35.64,-104.1,0
60775.0,-0.037,0.106,0.203,27.15,10.4,0
60780.0,0.106,-0.205,0.074,-57.76,-55.24,0
60785.0,-0.068,0.151,0.026,64.21,69.23,0
60790.0,0.166,-0.055,0.024,-17.99,-81.94,0
60795.0,-0.135,0.163,-0.034,49.48,104.06,0
60800.0,0.152,-0.136,0.026,-41.42,-80.31,0
60805.0,-0.116,0.101,0.059,37.75,62.92,0
60810.0,0.135,-0.009,-0.034,-3.7,-104.09,0
60815.0,-0.159,0.142,0.095,37.36,59.1,0
60820.0,0.138,-0.11,0.028,-37.97,-78.36,0
60825.0,-0.157,0.077,-0.02,26.01,97.1,0
60830.0,0.188,-0.136,-0.022,-35.71,-96.67,0
60835.0,-0.123,0.135,0.021,47.07,80.28,0
60840.0,0.123,-0.05,0.074,-19.1,-59.06,0
60845.0,-0.107,0.087,0.007,39.06,86.36,0
60850.0,0.197,-0.062,-0.008,-17.35,-92.2,0
60855.0,-0.186,0.259,0.138,48.21,53.29,0
60860.0,0.181,0.003,0.031,0.92,-80.34,0
60865.0,-0.207,0.039,-0.077,9.97,110.38,0
60870.0,0.159,0.044,0.024,15.19,-81.58,0
60875.0,-0.2,-0.004,-0.087,-1.11,113.4,0
60880.0,0.214,-0.1,-0.055,-24.33,-104.52,0
60885.0,-0.21,0.036,-0.058,9.52,105.43,0
60890.0,0.183,0.034,-0.12,8.85,-123.28,0
60895.0,0.2,0.185,0.1,39.61,-63.37,0
60900.0,0.25,0.005,-0.058,1.19,-103.03,0
60905.0,-0.243,-0.033,0.11,-7.04,65.71,0
60910.0,0.166,0.175,-0.096,42.4,-120.05,0
60915.0,-0.217,-0.086,0.213,-15.75,45.55,0
60920.0,0.212,0.039,-0.087,9.64,-112.24,0
60925.0,-0.337,-0.064,0.17,-9.65,63.26,0
60930.0,0.231,0.106,-0.096,22.95,-112.61,0
60935.0,0.243,0.278,0.126,45.46,-62.49,0
60940.0,0.185,-0.244,-0.185,-42.95,-134.9,0
60945.0,-0.284,0.147,0.189,23.27,56.38,0
60950.0,0.138,-0.196,-0.029,-54.32,-101.96,0
60955.0,-0.253,0.321,0.227,43.41,48.07,0
60960.0,0.159,-0.193,-0.008,-50.53,-92.73,0
60965.0,-0.334,0.147,0.191,20.85,60.23,0
60970.0,0.173,-0.244,-0.065,-52.76,-110.56,0
60975.0,0.173,0.23,0.141,45.88,-50.91,0
60980.0,-0.246,-0.229,-0.077,-41.7,107.41,0
60985.0,0.219,0.206,0.155,37.57,-54.66,0
60990.0,-0.143,-0.198,-0.118,-46.98,129.54,0
60995.0,0.238,0.276,0.22,40.41,-47.28,0
61000.0,-0.26,-0.248,-0.024,-43.58,95.35,0
61005.0,0.233,0.276,0.167,43.87,-54.37,0
61010.0,-0.061,-0.198,-0.022,-71.83,109.72,0
61015.0,0.2,0.254,0.27,37.13,-36.48,0
61020.0,-0.183,-0.299,-0.07,-56.71,110.85,0
61025.0,0.25,0.273,0.229,38.87,-47.46,0
61030.0,-0.157,-0.205,-0.027,-52.21,99.66,0
61035.0,0.238,0.307,0.208,44.17,-48.87,0
61040.0,-0.167,-0.229,-0.053,-52.68,107.67,0
61045.0,0.219,0.221,0.146,40.03,-56.36,0
61050.0,-0.138,-0.272,-0.115,-56.58,129.92,0
61055.0,0.19,0.305,0.174,49.73,-47.48,0
61060.0,-0.267,-0.179,-0.125,-31.26,115.06,0
61065.0,0.231,0.214,0.148,37.92,-57.33,0
61070.0,-0.102,-0.201,-0.036,-61.66,109.61,0
61075.0,0.207,0.226,0.237,35.67,-41.17,0
61080.0,-0.145,-0.174,-0.034,-49.48,103.16,0
61085.0,0.197,0.18,0.215,31.68,-42.54,0
61090.0,-0.116,-0.215,-0.039,-60.31,108.41,0
61095.0,0.147,0.252,0.215,44.04,-34.37,0
61100.0,-0.085,-0.246,0.026,-70.11,73.06,0
61105.0,0.169,0.283,0.198,47.4,-40.37,0
61110.0,-0.109,-0.208,-0.06,-59.04,118.91,0
61115.0,0.209,0.336,0.215,48.21,-44.22,0
61120.0,-0.121,-0.265,-0.036,-64.52,106.7,0
61125.0,0.195,0.228,0.194,39.69,-45.21,0
61130.0,-0.059,-0.26,-0.02,-76.61,108.39,0
61135.0,0.228,0.283,0.229,41.16,-44.88,0
61140.0,-0.1,-0.196,0.028,-62.14,74.11,0
61145.0,0.202,0.324,0.234,46.3,-40.8,0
61150.0,-0.085,-0.256,-0.048,-69.05,119.55,0
61155.0,0.274,0.266,0.213,37.52,-52.18,0
61160.0,-0.183,-0.215,-0.051,-48.49,105.45,0
61165.0,0.157,0.293,0.167,51.94,-43.14,0
61170.0,-0.021,-0.256,-0.091,-69.88,167.35,0
61175.0,0.166,0.305,0.165,52.46,-45.25,0
61180.0,-0.095,-0.236,-0.01,-68.06,96.01,0
61185.0,0.087,0.297,0.27,46.34,-17.89,0
61190.0,-0.092,-0.272,-0.034,-70.14,110.17,0
61195.0,0.245,0.355,0.146,51.21,-59.29,0
61200.0,-0.121,-0.301,-0.089,-63.48,126.32,0
61205.0,0.133,0.381,0.225,55.61,-30.57,0
61210.0,-0.016,-0.301,-0.029,-83.73,151.64,0
61215.0,0.19,0.319,0.21,48.37,-42.12,0
61220.0,-0.032,-0.224,0.043,-76.56,37.26,0
61225.0,0.149,0.338,0.182,55.18,-39.46,0
61230.0,0.032,-0.28,0.026,-81.59,-51.11,0
61235.0,0.202,0.314,0.229,45.78,-41.38,0
61240.0,-0.08,-0.227,-0.022,-69.84,105.27,0
61245.0,0.114,0.314,0.115,62.83,-44.76,0
61250.0,0.001,-0.208,-0.017,-85.27,-176.54,0
61255.0,0.171,0.235,0.225,39.79,-37.28,0
61260.0,-0.076,-0.201,-0.0,-69.35,90.3,0
61265.0,0.154,0.264,0.191,47.06,-38.91,0
61270.0,0.037,-0.263,0.033,-79.31,-48.13,0
61275.0,0.176,0.369,0.186,55.25,-43.33,0
61280.0,-0.095,-0.27,-0.041,-69.07,113.45,0
61285.0,0.147,0.42,0.203,59.13,-35.91,0
61290.0,-0.123,-0.366,-0.115,-65.21,133.05,0
61295.0,0.176,0.405,0.129,61.72,-53.75,0
61300.0,-0.145,-0.337,-0.06,-65.02,112.56,0
61305.0,0.121,0.379,0.138,64.13,-41.09,0
61310.0,0.027,-0.402,0.052,-81.64,-27.64,0
61315.0,0.13,0.357,0.213,55.08,-31.5,0
61320.0,-0.013,-0.246,-0.003,-86.83,101.83,0
61325.0,0.061,0.381,0.098,73.19,-31.92,0
61330.0,0.063,-0.313,0.04,-76.52,-57.51,0
61335.0,0.133,0.333,0.194,54.86,-34.44,0
61340.0,-0.037,-0.308,-0.02,-82.23,117.68,0
61345.0,0.111,0.396,0.174,62.4,-32.52,0
61350.0,0.063,-0.385,0.076,-75.57,-39.7,0
61355.0,0.082,0.36,0.215,57.37,-20.97,0
61360.0,0.03,-0.229,-0.024,-80.48,-129.27,0
61365.0,0.044,0.362,0.057,78.73,-37.72,0
61370.0,0.037,-0.325,-0.02,-82.67,-117.88,0
61375.0,0.051,0.305,0.153,62.11,-18.56,0
61380.0,-0.011,-0.189,-0.0,-86.68,92.08,0
61385.0,0.099,0.381,0.103,69.48,-44.05,0
61390.0,0.073,-0.308,0.081,-70.54,-41.97,0
61395.0,0.054,0.295,0.165,59.57,-18.05,0
61400.0,0.135,-0.318,0.014,-66.86,-84.1,0
61405.0,0.011,0.465,0.107,76.94,-5.65,0
61410.0,0.087,-0.167,0.038,-60.34,-66.51,0
61415.0,0.008,0.185,0.04,77.46,-11.53,0
61420.0,0.106,-0.284,0.05,-67.55,-64.88,0
61425.0,-0.023,0.362,0.112,72.46,11.54,0
61430.0,0.018,-0.117,-0.017,-78.05,-133.95,0
61435.0,0.08,0.264,0.083,66.35,-43.82,0
61440.0,0.063,-0.342,-0.036,-77.95,-119.85,0
61445.0,-0.056,0.353,0.036,79.29,57.81,0
61450.0,0.061,-0.222,-0.01,-74.47,-99.3,0
61455.0,0.042,0.269,0.064,74.09,-33.01,0
61460.0,0.061,-0.263,0.076,-69.63,-38.62,0
61465.0,0.035,0.23,0.155,55.39,-12.55,0
61470.0,0.047,-0.215,0.04,-74.02,-49.1,0
61475.0,0.001,0.374,0.059,80.97,-1.0,0
61480.0,0.104,-0.28,0.043,-68.09,-67.68,0
61485.0,-0.088,0.238,0.112,59.09,37.98,0
61490.0,0.047,-0.275,-0.182,-55.59,-165.69,0
61495.0,0.245,0.283,0.107,46.6,-66.36,0
61500.0,0.126,-0.114,-0.173,-28.17,-144.0,0
61505.0,-0.049,0.209,0.055,70.59,42.01,0
61510.0,0.102,-0.186,-0.199,-39.79,-152.97,0
61515.0,-0.006,0.202,0.076,69.24,4.61,0
61520.0,0.044,-0.162,-0.166,-43.43,-165.08,0
61525.0,-0.078,0.242,0.136,57.1,29.81,0
61530.0,0.138,-0.28,-0.089,-59.64,-122.91,0
61535.0,0.161,0.324,0.076,61.13,-64.73,0
61540.0,0.176,-0.256,-0.242,-40.5,-144.03,0
61545.0,-0.138,0.257,0.028,61.27,78.38,0
61550.0,0.183,-0.339,-0.173,-53.44,-133.36,0
61555.0,-0.083,0.293,0.074,69.25,48.27,0
61560.0,0.164,-0.301,-0.175,-51.46,-136.91,0
61565.0,-0.073,0.283,0.081,68.91,42.1,0
61570.0,0.159,-0.28,-0.137,-53.11,-130.71,0
61575.0,0.221,0.214,0.028,43.76,-82.7,0
61580.0,-0.396,-0.27,-0.149,-32.52,110.58,0
61585.0,0.243,0.266,0.038,47.29,-81.13,0
61590.0,-0.329,-0.22,-0.228,-28.75,124.67,0
61595.0,0.26,0.144,0.155,25.49,-59.12,0
61600.0,-0.286,-0.301,-0.077,-45.45,105.06,0
61605.0,0.324,0.223,0.162,31.61,-63.4,0
61610.0,-0.226,-0.22,-0.017,-44.06,94.33,0
61615.0,0.248,0.262,0.215,38.57,-49.03,0
61620.0,-0.301,-0.339,-0.185,-43.89,121.57,0
61625.0,0.245,0.202,0.083,37.9,-71.22,0
61630.0,-0.212,-0.208,-0.101,-41.49,115.46,0
61635.0,0.181,0.245,0.174,44.27,-46.0,0
61640.0,-0.279,-0.311,-0.142,-44.79,116.91,0
61645.0,0.303,0.238,0.225,32.22,-53.42,0
61650.0,-0.272,-0.181,-0.058,-33.13,102.01,0
61655.0,0.217,0.194,0.069,40.56,-72.32,0
61660.0,-0.332,-0.33,-0.187,-40.89,119.43,0
61665.0,0.25,0.242,0.119,41.18,-64.49,0
61670.0,-0.21,-0.122,-0.115,-26.93,118.81,0
61675.0,0.212,0.206,0.165,37.58,-52.1,0
61680.0,-0.31,-0.198,-0.134,-30.37,113.44,0
61685.0,0.238,0.101,0.138,20.16,-59.82,0
61690.0,-0.171,-0.172,-0.156,-36.56,132.32,0
61695.0,0.147,0.25,0.126,52.14,-49.3,0
61700.0,-0.317,-0.275,-0.168,-37.42,117.89,0
61705.0,0.248,0.144,0.112,27.95,-65.64,0
61710.0,-0.246,-0.213,-0.132,-37.31,118.27,0
61715.0,0.135,0.269,0.122,55.91,-47.99,0
61720.0,-0.241,-0.213,-0.079,-39.97,108.25,0
61725.0,0.226,0.151,0.098,31.58,-66.62,0
61730.0,-0.19,-0.263,-0.125,-49.08,123.25,0
61735.0,0.193,0.293,0.213,45.57,-42.16,0
61740.0,-0.248,-0.203,-0.101,-37.16,112.15,0
61745.0,0.238,0.183,0.093,35.53,-68.67,0
61750.0,-0.2,-0.172,-0.132,-35.63,123.43,0
61755.0,0.195,0.204,0.191,36.77,-45.57,0
61760.0,-0.222,-0.227,-0.094,-43.31,112.93,0
61765.0,0.152,0.209,0.105,48.53,-55.35,0
61770.0,-0.207,-0.213,-0.111,-42.14,118.07,0
61775.0,0.161,0.293,0.191,49.47,-40.19,0
61780.0,-0.281,-0.167,-0.151,-27.6,118.25,0
61785.0,0.217,0.218,0.162,38.9,-53.13,0
61790.0,-0.155,-0.289,-0.072,-59.45,115.04,0
61795.0,0.207,0.257,0.177,43.33,-49.5,0
61800.0,-0.219,-0.246,-0.079,-46.54,109.91,0
61805.0,0.178,0.247,0.146,47.04,-50.74,0
61810.0,-0.167,-0.21,-0.125,-45.27,126.87,0
61815.0,0.209,0.283,0.184,45.45,-48.69,0
61820.0,-0.183,-0.294,-0.043,-57.34,103.35,0
61825.0,0.284,0.197,0.268,26.79,-46.64,0
61830.0,-0.167,-0.198,-0.032,-49.46,100.72,0
61835.0,0.233,0.321,0.237,44.04,-44.59,0
61840.0,-0.174,-0.244,-0.036,-53.93,101.8,0
61845.0,0.176,0.276,0.182,47.51,-44.08,0
61850.0,-0.126,-0.244,-0.089,-57.68,125.26,0
61855.0,0.221,0.283,0.179,44.83,-51.01,0
61860.0,-0.162,-0.256,-0.046,-56.66,105.84,0
61865.0,0.212,0.204,0.165,37.26,-52.1,0
61870.0,-0.08,-0.248,-0.032,-70.84,111.42,0
61875.0,0.231,0.324,0.225,45.14,-45.78,0
61880.0,-0.169,-0.205,-0.055,-49.11,108.17,0
61885.0,0.171,0.254,0.177,45.96,-44.05,0
61890.0,-0.068,-0.265,-0.032,-74.15,114.74,0
61895.0,0.243,0.254,0.249,36.2,-44.33,0
61900.0,-0.135,-0.15,-0.027,-47.43,101.17,0
61905.0,0.212,0.317,0.261,43.32,-39.1,0
61910.0,-0.011,-0.375,0.028,-85.37,21.1,0
61915.0,0.169,0.317,0.234,47.65,-35.75,0
61920.0,-0.097,-0.234,0.031,-66.48,72.44,0
61925.0,0.159,0.341,0.215,51.85,-36.48,0
61930.0,-0.064,-0.244,-0.053,-71.22,129.84,0
61935.0,0.195,0.259,0.179,44.38,-47.42,0
61940.0,-0.095,-0.234,0.024,-67.36,76.04,0
61945.0,0.133,0.233,0.153,48.99,-40.97,0
61950.0,-0.042,-0.215,-0.043,-74.28,135.96,0
61955.0,0.19,0.326,0.155,53.03,-50.78,0
61960.0,-0.133,-0.32,-0.012,-67.35,95.31,0
61965.0,0.142,0.29,0.194,50.39,-36.33,0
61970.0,-0.042,-0.251,-0.027,-78.76,122.44,0
61975.0,0.152,0.283,0.232,45.61,-33.23,0
61980.0,-0.164,-0.26,-0.055,-56.36,108.67,0
61985.0,0.111,0.367,0.191,58.92,-30.18,0
61990.0,0.006,-0.323,-0.003,-88.85,-115.61,0
61995.0,0.219,0.348,0.256,45.92,-40.56,0
62000.0,-0.116,-0.265,-0.01,-66.25,94.9,0
62005.0,0.195,0.333,0.232,47.74,-40.06,0
62010.0,0.032,-0.354,0.052,-80.16,-31.6,0
62015.0,0.195,0.393,-0.07,62.22,-109.71,0
62020.0,-0.071,-0.22,0.031,-70.65,66.54,0
62025.0,0.173,0.331,0.217,49.95,-38.57,0
62030.0,0.042,-0.313,0.012,-82.12,-74.5,0
62035.0,0.133,0.353,0.186,57.02,-35.46,0
62040.0,-0.013,-0.246,0.019,-84.66,35.4,0
62045.0,0.173,0.317,0.217,48.7,-38.57,0
62050.0,-0.035,-0.342,-0.029,-82.43,129.87,0
62055.0,0.128,0.405,0.079,69.67,-58.43,0
62060.0,-0.068,-0.244,0.002,-74.31,88.33,0
62065.0,0.111,0.388,0.119,67.22,-42.98,0
62070.0,0.032,-0.385,-0.053,-80.84,-148.78,0
62075.0,0.121,0.319,0.217,52.05,-29.04,0
62080.0,-0.03,-0.189,0.012,-80.3,68.96,0
62085.0,0.128,0.367,0.174,59.48,-36.27,0
62090.0,0.023,-0.311,-0.247,-51.4,-174.78,0
62095.0,0.228,0.374,0.1,56.3,-66.33,0
62100.0,0.008,-0.277,-0.245,-48.55,-178.08,0
62105.0,0.08,0.46,-0.022,79.78,-105.33,0
62110.0,0.058,-0.265,-0.249,-45.99,-166.8,0
62115.0,0.128,0.285,0.059,63.7,-65.07,0
62120.0,0.054,-0.337,-0.261,-51.63,-168.39,0
62125.0,0.023,0.384,0.079,77.96,-16.03,0
62130.0,0.027,-0.289,-0.185,-57.14,-171.57,0
62135.0,0.257,0.331,0.064,51.3,-75.98,0
62140.0,0.037,-0.574,-0.254,-65.89,-171.73,0
62145.0,-0.001,0.443,-0.0,89.82,106.34,0
62150.0,0.109,-0.327,-0.264,-48.93,-157.59,0
62155.0,0.138,0.266,0.086,58.68,-58.04,0
62160.0,0.042,-0.541,-0.319,-59.25,-172.54,0
62165.0,0.102,0.386,-0.041,74.15,-112.03,0
62170.0,0.078,-0.28,-0.228,-49.27,-161.18,0
62175.0,0.25,0.283,0.079,47.2,-72.55,0
62180.0,-0.363,-0.569,-0.218,-53.35,121.03,0
62185.0,0.312,0.324,0.021,45.97,-86.13,0
62190.0,-0.447,-0.248,-0.228,-26.36,117.03,0
62195.0,0.257,0.367,0.057,54.32,-77.49,0
62200.0,-0.363,-0.5,-0.144,-52.01,111.65,0
62205.0,0.233,0.257,0.026,47.57,-83.66,0
62210.0,-0.377,-0.251,-0.221,-29.85,120.32,0
62215.0,0.252,0.381,0.143,52.72,-60.42,0
62220.0,-0.401,-0.445,-0.225,-44.02,119.33,0
62225.0,0.334,0.266,0.16,35.73,-64.39,0
62230.0,-0.471,-0.325,-0.221,-32.02,115.12,0
62235.0,0.205,0.341,-0.063,57.86,-107.03,0
62240.0,-0.377,-0.387,-0.144,-43.8,110.9,0
62245.0,0.334,0.223,0.162,31.02,-64.06,0
62250.0,-0.37,-0.383,-0.18,-42.91,115.93,0
62255.0,0.24,0.355,0.007,55.87,-88.38,0
62260.0,-0.329,-0.39,-0.283,-41.91,130.66,0
62265.0,0.257,0.228,0.038,41.25,-81.62,0
62270.0,-0.428,-0.296,-0.18,-32.57,112.83,0
62275.0,0.245,0.319,0.021,52.34,-85.07,0
62280.0,-0.418,-0.359,-0.228,-36.99,118.6,0
62285.0,0.281,0.218,0.107,35.97,-69.1,0
62290.0,-0.394,-0.308,-0.18,-35.44,114.55,0
62295.0,0.188,0.245,0.009,52.47,-87.2,0
62300.0,-0.363,-0.318,-0.304,-33.86,130.0,0
62305.0,0.264,0.252,0.043,43.25,-80.83,0
62310.0,-0.32,-0.373,-0.108,-47.85,108.68,0
62315.0,0.267,0.329,0.184,45.39,-55.41,0
62320.0,-0.365,-0.363,-0.194,-41.29,118.01,0
62325.0,0.281,0.321,0.119,46.46,-67.01,0
62330.0,-0.293,-0.323,-0.192,-42.62,123.19,0
62335.0,0.188,0.154,0.105,35.56,-60.8,0
62340.0,-0.444,-0.272,-0.281,-27.4,122.27,0
62345.0,0.217,0.23,-0.022,46.63,-95.79,0
62350.0,-0.375,-0.119,-0.216,-15.4,119.94,0
62355.0,0.217,0.226,0.059,45.14,-74.64,0
62360.0,-0.353,-0.478,-0.233,-48.51,123.36,0
62365.0,0.226,0.235,0.055,45.32,-76.41,0
62370.0,-0.341,-0.215,-0.134,-30.36,111.5,0
62375.0,0.217,0.396,0.124,57.75,-60.18,0
62380.0,-0.298,-0.289,-0.132,-41.56,113.89,0
62385.0,0.315,0.115,0.098,19.31,-72.74,0
62390.0,-0.262,-0.22,-0.127,-37.0,115.88,0
62395.0,0.19,0.266,0.177,45.73,-47.09,0
62400.0,-0.296,-0.229,-0.055,-37.3,100.62,0
62405.0,0.296,0.147,0.177,23.06,-59.11,0
62410.0,-0.289,-0.224,-0.161,-34.19,119.12,0
62415.0,0.176,0.238,0.091,50.22,-62.74,0
62420.0,-0.341,-0.28,-0.225,-34.35,123.45,0
62425.0,0.24,0.228,0.136,39.53,-60.5,0
62430.0,-0.255,-0.248,-0.108,-41.88,112.97,0
62435.0,0.25,0.302,0.15,46.01,-58.97,0
62440.0,-0.231,-0.299,-0.077,-50.79,108.42,0
62445.0,0.233,0.156,0.098,31.69,-67.26,0
62450.0,-0.246,-0.251,-0.173,-39.87,125.13,0
62455.0,0.2,0.269,0.146,47.39,-53.9,0
62460.0,-0.289,-0.268,-0.149,-39.49,117.28,0
62465.0,0.202,0.187,0.136,37.55,-56.05,0
62470.0,-0.224,-0.217,-0.149,-38.94,123.6,0
62475.0,0.205,0.283,0.17,46.81,-50.34,0
62480.0,-0.317,-0.306,-0.137,-41.51,113.33,0
62485.0,0.267,0.192,0.107,33.74,-68.08,0
62490.0,-0.212,-0.167,-0.111,-34.94,117.53,0
62495.0,0.193,0.24,0.1,47.87,-62.52,0
62500.0,-0.224,-0.32,-0.12,-51.56,118.2,0
62505.0,0.19,0.218,0.158,41.49,-50.35,0
62510.0,-0.238,-0.201,-0.125,-36.69,117.65,0
62515.0,0.214,0.288,0.17,46.5,-51.62,0
62520.0,-0.224,-0.234,-0.075,-44.75,108.42,0
62525.0,0.255,0.151,0.174,26.12,-55.62,0
62530.0,-0.102,-0.215,-0.055,-61.64,118.56,0
62535.0,0.233,0.214,0.208,34.36,-48.29,0
62540.0,-0.231,-0.277,-0.089,-48.21,111.05,0
62545.0,0.217,0.199,0.182,35.19,-50.02,0
62550.0,-0.231,-0.172,-0.089,-34.74,111.05,0
62555.0,0.228,0.314,0.146,49.23,-57.48,0
62560.0,-0.169,-0.323,-0.079,-59.95,115.17,0
62565.0,0.178,0.132,0.131,30.86,-53.62,0
62570.0,-0.145,-0.27,-0.108,-56.18,126.71,0
62575.0,0.171,0.309,0.019,60.92,-83.74,0
62580.0,-0.231,-0.193,-0.099,-37.57,113.09,0
62585.0,0.226,0.197,0.229,31.43,-44.58,0
62590.0,-0.157,-0.256,-0.058,-56.8,110.23,0
62595.0,0.19,0.307,0.15,51.7,-51.66,0
62600.0,-0.186,-0.172,-0.046,-41.93,103.88,0
62605.0,0.197,0.12,0.143,26.25,-54.03,0
62610.0,-0.116,-0.306,-0.065,-66.46,119.22,0
62615.0,0.157,0.223,0.062,52.96,-68.46,0
62620.0,-0.183,-0.134,-0.036,-35.54,101.2,0
62625.0,0.207,0.266,0.165,45.19,-51.47,0
62630.0,-0.171,-0.26,-0.036,-56.08,101.97,0
62635.0,0.212,0.175,0.167,33.02,-51.7,0
62640.0,-0.212,-0.263,-0.043,-50.52,101.59,0
62645.0,0.128,0.238,0.165,48.71,-37.82,0
62650.0,-0.059,-0.174,-0.036,-68.36,121.69,0
62655.0,0.185,0.295,-0.012,57.8,-93.82,0
62660.0,-0.128,-0.227,-0.029,-59.9,102.8,0
62665.0,0.245,0.273,0.184,41.74,-53.13,0
62670.0,-0.078,-0.332,0.009,-76.7,83.29,0
62675.0,0.157,0.25,0.17,47.23,-42.73,0
62680.0,-0.126,-0.174,-0.079,-49.5,122.25,0
62685.0,0.188,0.228,0.158,42.92,-49.99,0
62690.0,-0.083,-0.22,-0.015,-69.06,100.11,0
62695.0,0.214,0.331,0.009,57.07,-87.55,0
62700.0,-0.116,-0.256,-0.24,-43.8,154.13,0
62705.0,0.193,0.338,-0.063,59.08,-108.02,0
62710.0,-0.042,-0.294,-0.211,-53.79,168.73,0
62715.0,0.195,0.324,0.026,58.72,-82.42,0
62720.0,-0.128,-0.217,-0.178,-44.77,144.16,0
62725.0,0.171,0.305,-0.008,60.66,-92.54,0
62730.0,-0.097,-0.282,-0.134,-59.53,144.16,0
62735.0,0.243,0.357,0.095,53.86,-68.56,0
62740.0,-0.102,-0.529,-0.228,-64.72,155.9,0
62745.0,0.109,0.46,-0.022,76.44,-101.41,0
62750.0,-0.016,-0.421,-0.283,-56.05,176.82,0
62755.0,0.231,0.314,0.059,52.81,-75.56,0
62760.0,-0.102,-0.495,-0.249,-61.44,157.77,0
62765.0,0.164,0.455,-0.015,70.14,-95.15,0
62770.0,-0.03,-0.356,-0.206,-59.66,171.7,0
62775.0,0.217,0.348,0.071,56.75,-71.74,0
62780.0,-0.408,-0.543,-0.269,-48.01,123.33,0
62785.0,0.228,0.436,-0.029,62.17,-97.27,0
62790.0,-0.444,-0.39,-0.228,-37.97,117.15,0
62795.0,0.205,0.293,0.016,54.96,-85.43,0
62800.0,-0.53,-0.541,-0.3,-41.58,119.46,0
62805.0,0.291,0.508,-0.046,59.92,-98.97,0
62810.0,-0.394,-0.351,-0.197,-38.59,116.53,0
62815.0,0.248,0.302,0.059,49.88,-76.5,0
62820.0,-0.439,-0.517,-0.271,-45.02,121.65,0
62825.0,0.296,0.465,-0.043,57.29,-98.37,0
62830.0,-0.399,-0.435,-0.213,-43.89,118.16,0
62835.0,0.209,0.391,0.064,60.74,-72.94,0
62840.0,-0.439,-0.553,-0.218,-48.39,116.41,0
62845.0,0.327,0.422,0.026,52.17,-85.46,0
62850.0,-0.48,-0.414,-0.245,-37.51,116.99,0
62855.0,0.267,0.432,0.086,57.0,-72.17,0
62860.0,-0.435,-0.572,-0.197,-50.15,114.35,0
62865.0,0.307,0.41,-0.003,53.13,-90.52,0
62870.0,-0.49,-0.416,-0.264,-36.79,118.3,0
62875.0,0.212,0.388,0.021,61.29,-84.3,0
62880.0,-0.428,-0.553,-0.264,-47.72,121.67,0
62885.0,0.24,0.372,-0.029,56.91,-96.91,0
62890.0,-0.428,-0.442,-0.206,-42.98,115.76,0
62895.0,0.31,0.405,0.064,52.01,-78.29,0
62900.0,-0.468,-0.466,-0.166,-43.2,109.48,0
62905.0,0.343,0.396,0.081,48.27,-76.73,0
62910.0,-0.394,-0.418,-0.192,-43.67,115.97,0
62915.0,0.25,0.338,0.036,53.25,-81.92,0
62920.0,-0.406,-0.584,-0.321,-48.43,128.35,0
62925.0,0.288,0.4,0.067,53.53,-76.99,0
62930.0,-0.504,-0.378,-0.237,-34.13,115.22,0
62935.0,0.293,0.403,0.083,52.89,-74.12,0
62940.0,-0.401,-0.521,-0.168,-50.16,112.72,0
62945.0,0.264,0.398,0.033,56.2,-82.86,0
62950.0,-0.471,-0.327,-0.29,-30.64,121.65,0
62955.0,0.219,0.317,-0.055,54.5,-104.22,0
62960.0,-0.43,-0.507,-0.271,-44.93,122.22,0
62965.0,0.243,0.357,0.009,55.78,-87.84,0
62970.0,-0.428,-0.32,-0.249,-32.91,120.26,0
62975.0,0.284,0.307,0.11,45.28,-68.84,0
62980.0,-0.444,-0.435,-0.247,-40.57,119.07,0
62985.0,0.231,0.388,0.021,59.17,-84.77,0
62990.0,-0.365,-0.282,-0.202,-34.05,118.88,0
62995.0,0.202,0.228,0.04,47.89,-78.72,0
63000.0,-0.394,-0.49,-0.221,-47.35,119.25,0
63005.0,0.252,0.281,0.047,47.54,-79.35,0
63010.0,-0.459,-0.294,-0.225,-29.9,116.18,0
63015.0,0.255,0.388,0.062,55.98,-76.36,0
63020.0,-0.451,-0.462,-0.245,-41.95,118.45,0
63025.0,0.317,0.3,0.076,42.6,-76.48,0
63030.0,-0.384,-0.363,-0.156,-41.21,112.09,0
63035.0,0.252,0.355,0.103,52.49,-67.89,0
63040.0,-0.334,-0.44,-0.166,-49.71,116.36,0
63045.0,0.276,0.247,0.059,41.16,-77.86,0
63050.0,-0.411,-0.304,-0.182,-34.03,113.94,0
63055.0,0.193,0.297,0.016,56.99,-85.14,0
63060.0,-0.408,-0.349,-0.151,-38.71,110.32,0
63065.0,0.269,0.199,0.124,33.91,-65.25,0
63070.0,-0.411,-0.287,-0.216,-31.71,117.72,0
63075.0,0.226,0.312,0.031,53.8,-82.26,0
63080.0,-0.394,-0.426,-0.221,-43.3,119.25,0
63085.0,0.272,0.297,0.019,47.53,-86.05,0
63090.0,-0.344,-0.315,-0.173,-39.35,116.69,0
63095.0,0.238,0.317,0.16,47.82,-56.09,0
63100.0,-0.293,-0.43,-0.144,-52.78,116.15,0
63105.0,0.329,0.302,0.21,37.74,-57.42,0
63110.0,-0.327,-0.284,-0.072,-40.34,102.46,0
63115.0,0.272,0.312,0.131,45.95,-64.2,0
63120.0,-0.339,-0.335,-0.18,-41.09,117.97,0
63125.0,0.291,0.216,0.045,36.29,-81.18,0
63130.0,-0.301,-0.27,-0.13,-39.51,113.33,0
63135.0,0.185,0.314,0.126,54.46,-55.69,0
63140.0,-0.329,-0.282,-0.173,-37.17,117.68,0
63145.0,0.3,0.18,0.067,30.35,-77.49,0
63150.0,-0.356,-0.318,-0.194,-38.11,118.65,0
63155.0,0.171,0.297,0.052,58.98,-73.0,0
63160.0,-0.329,-0.347,-0.134,-44.25,112.21,0
63165.0,0.217,0.266,0.086,48.83,-68.38,0
63170.0,-0.21,-0.201,-0.034,-43.36,99.19,0
63175.0,0.238,0.216,0.131,38.47,-61.12,0
63180.0,-0.267,-0.335,-0.108,-49.27,112.04,0
63185.0,0.281,0.183,0.124,30.71,-66.18,0
63190.0,-0.27,-0.201,-0.134,-33.66,116.52,0
63195.0,0.214,0.278,0.201,43.48,-46.85,0
63200.0,-0.313,-0.344,-0.094,-46.52,106.7,0
63205.0,0.231,0.204,0.047,40.88,-78.38,0
63210.0,-0.291,-0.201,-0.211,-29.15,125.95,0
63215.0,0.205,0.324,0.122,53.68,-59.25,0
63220.0,-0.303,-0.325,-0.115,-45.07,110.83,0
63225.0,0.267,0.175,0.1,31.6,-69.42,0
63230.0,-0.229,-0.234,-0.154,-40.34,123.88,0
63235.0,0.205,0.319,0.206,47.73,-44.87,0
63240.0,-0.198,-0.327,-0.017,-58.79,94.96,0
63245.0,0.209,0.223,0.079,44.95,-69.42,0
63250.0,-0.229,-0.181,-0.118,-35.18,117.22,0
63255.0,0.291,0.015,0.093,2.8,-72.27,0
63260.0,-0.284,-0.294,-0.118,-43.72,112.52,0
63265.0,0.171,0.125,0.115,31.28,-56.19,0
63270.0,-0.157,-0.186,-0.048,-48.58,107.1,0
63275.0,0.209,0.266,0.189,43.38,-47.96,0
63280.0,-0.289,-0.205,-0.06,-34.85,101.79,0
63285.0,0.236,0.115,0.141,22.81,-59.13,0
63290.0,-0.167,-0.215,-0.084,-49.03,116.82,0
63295.0,0.233,-0.035,0.076,-8.2,-71.91,0
63300.0,-0.255,-0.143,-0.06,-28.63,103.29,0
63305.0,0.221,0.166,0.014,36.78,-86.39,0
63310.0,-0.14,-0.301,-0.137,-56.95,134.31,0
63315.0,0.202,0.273,0.115,49.65,-60.47,0
63320.0,-0.284,-0.232,-0.07,-38.4,103.82,0
63325.0,0.238,0.309,-0.048,51.87,-101.46,0
63330.0,-0.128,-0.177,-0.173,-39.38,143.41,0
63335.0,0.169,0.089,0.074,25.84,-66.36,0
63340.0,-0.202,-0.232,-0.142,-43.15,124.98,0
63345.0,0.161,0.288,-0.051,59.55,-107.43,0
63350.0,-0.162,-0.138,-0.168,-30.67,136.08,0
63355.0,0.238,0.12,0.069,25.88,-73.83,0
63360.0,-0.238,-0.282,-0.065,-48.77,105.26,0
63365.0,0.195,0.333,0.038,59.21,-79.0,0
63370.0,-0.128,-0.236,-0.063,-58.88,116.03,0
63375.0,0.3,0.115,0.055,20.72,-79.68,0
63380.0,-0.315,-0.335,-0.087,-45.69,105.37,0
63385.0,0.267,0.36,0.081,52.22,-73.11,0
63390.0,-0.274,-0.224,-0.101,-37.53,110.21,0
63395.0,0.24,0.254,-0.003,46.61,-90.67,0
63400.0,-0.337,-0.347,-0.209,-41.19,121.8,0
63405.0,0.288,0.329,0.019,48.67,-86.28,0
63410.0,-0.298,-0.351,-0.063,-49.07,101.86,0
63415.0,0.226,0.264,0.05,48.74,-77.56,0
63420.0,-0.325,-0.313,-0.154,-41.08,115.33,0
63425.0,0.166,0.336,-0.089,60.68,-118.16,0
63430.0,-0.377,-0.339,-0.225,-37.68,120.86,0
63435.0,0.303,0.259,0.055,40.11,-79.76,0
63440.0,-0.439,-0.335,-0.182,-35.12,112.53,0
63445.0,0.305,0.348,0.012,48.71,-87.83,0
63450.0,-0.396,-0.378,-0.199,-40.41,116.67,0
63455.0,0.238,0.305,0.038,51.64,-80.95,0
63460.0,-0.356,-0.349,-0.166,-41.65,114.96,0
63465.0,0.252,0.367,0.04,55.13,-80.93,0
63470.0,-0.413,-0.387,-0.18,-40.68,113.54,0
63475.0,0.2,0.293,0.016,55.59,-85.32,0
63480.0,-0.341,-0.371,-0.218,-42.45,122.6,0
63485.0,0.205,0.386,-0.024,61.92,-96.79,0
63490.0,-0.437,-0.385,-0.23,-37.92,117.78,0
63495.0,0.264,0.338,0.012,51.95,-87.49,0
63500.0,-0.396,-0.45,-0.134,-47.04,108.74,0
63505.0,0.252,0.441,0.012,60.19,-87.38,0
63510.0,-0.471,-0.459,-0.273,-40.15,120.15,0
63515.0,0.358,0.307,0.047,40.39,-82.44,0
63520.0,-0.408,-0.497,-0.154,-48.75,110.62,0
63525.0,0.25,0.525,0.038,64.28,-81.38,0
63530.0,-0.413,-0.399,-0.185,-41.42,114.09,0
63535.0,0.264,0.319,-0.027,50.2,-95.77,0
63540.0,-0.418,-0.55,-0.271,-47.84,122.95,0
63545.0,0.14,0.453,-0.111,68.52,-128.31,0
63550.0,-0.449,-0.411,-0.266,-38.23,120.65,0
63555.0,0.233,0.381,-0.063,57.64,-105.03,0
63560.0,-0.519,-0.529,-0.324,-40.85,121.97,0
63565.0,0.339,0.443,0.059,52.22,-80.04,0
63570.0,-0.43,-0.359,-0.213,-36.76,116.41,0
63575.0,0.221,0.321,-0.005,55.44,-91.34,0
63580.0,-0.325,-0.512,-0.163,-54.63,116.69,0
63585.0,0.221,0.386,0.036,59.86,-80.88,0
63590.0,-0.425,-0.347,-0.209,-36.2,116.15,0
63595.0,0.284,0.374,0.04,52.56,-81.91,0
63600.0,-0.439,-0.517,-0.209,-46.72,115.4,0
63605.0,0.264,0.4,-0.012,56.53,-92.68,0
63610.0,-0.471,-0.371,-0.218,-35.54,114.88,0
63615.0,0.322,0.317,0.081,43.65,-75.87,0
63620.0,-0.375,-0.488,-0.182,-49.49,115.94,0
63625.0,0.219,0.353,0.016,58.09,-85.73,0
63630.0,-0.389,-0.371,-0.271,-38.0,124.84,0
63635.0,0.221,0.393,0.016,60.56,-85.77,0
63640.0,-0.444,-0.502,-0.24,-44.85,118.36,0
63645.0,0.264,0.376,0.021,54.83,-85.43,0
63650.0,-0.408,-0.473,-0.218,-45.64,118.12,0
63655.0,0.324,0.42,0.081,51.46,-75.97,0
63660.0,-0.38,-0.476,-0.134,-49.76,109.5,0
63665.0,0.3,0.379,0.1,50.12,-71.56,0
63670.0,-0.499,-0.433,-0.273,-37.24,118.7,0
63675.0,0.262,0.467,-0.029,60.58,-96.34,0
63680.0,-0.423,-0.536,-0.257,-47.29,121.26,0
63685.0,0.267,0.329,0.026,50.79,-84.45,0
63690.0,-0.461,-0.43,-0.276,-38.7,120.88,0
63695.0,0.228,0.41,0.043,60.45,-79.42,0
63700.0,-0.463,-0.421,-0.218,-39.4,115.22,0
63705.0,0.193,0.396,-0.0,64.04,-90.12,0
63710.0,-0.478,-0.445,-0.283,-38.69,120.63,0
63715.0,0.214,0.259,-0.101,47.59,-115.24,0
63720.0,-0.509,-0.452,-0.324,-36.85,122.45,0
63725.0,0.26,0.374,0.002,55.24,-89.56,0
63730.0,-0.408,-0.337,-0.13,-38.19,107.62,0
63735.0,0.183,0.264,0.062,53.8,-71.33,0
63740.0,-0.43,-0.428,-0.307,-39.02,125.52,0
63745.0,0.281,0.336,0.033,49.86,-83.28,0
63750.0,-0.428,-0.368,-0.252,-36.58,120.5,0
63755.0,0.183,0.312,0.047,58.77,-75.45,0
63760.0,-0.478,-0.495,-0.266,-42.15,119.12,0
63765.0,0.252,0.355,-0.034,54.33,-97.65,0
63770.0,-0.471,-0.256,-0.264,-25.35,119.27,0
63775.0,0.217,0.288,0.134,48.52,-58.31,0
63780.0,-0.406,-0.44,-0.23,-43.31,119.56,0
63785.0,0.319,0.264,0.04,39.34,-82.81,0
63790.0,-0.356,-0.272,-0.132,-35.67,110.37,0
63795.0,0.233,0.326,0.16,49.07,-55.55,0
63800.0,-0.442,-0.505,-0.283,-43.88,122.63,0
63805.0,0.178,0.343,-0.067,60.94,-110.73,0
63810.0,-0.411,-0.248,-0.304,-25.92,126.55,0
63815.0,0.169,0.283,0.136,52.57,-51.1,0
63820.0,-0.413,-0.49,-0.209,-46.65,116.8,0
63825.0,0.298,0.25,0.026,39.85,-85.02,0
63830.0,-0.418,-0.258,-0.19,-29.35,114.39,0
63835.0,0.238,0.364,0.112,54.17,-64.78,0
63840.0,-0.442,-0.435,-0.206,-41.74,115.03,0
63845.0,0.219,0.247,-0.005,48.46,-91.36,0
63850.0,-0.363,-0.308,-0.245,-35.16,123.98,0
63855.0,0.19,-0.306,0.11,-54.33,-60.01,0
63860.0,-0.432,-0.411,-0.151,-41.92,109.28,0
63865.0,0.291,0.235,0.016,38.93,-86.78,0
63870.0,-0.36,-0.244,-0.209,-30.33,120.07,0
63875.0,0.236,0.317,0.093,51.33,-68.47,0
63880.0,-0.37,-0.447,-0.187,-47.16,116.83,0
63885.0,0.358,0.147,0.093,21.63,-75.43,0
63890.0,-0.344,-0.256,0.012,-36.62,88.07,0
63895.0,0.209,-0.198,0.079,-41.55,-69.42,0
63900.0,-0.406,-0.327,0.064,-38.54,81.01,0
63905.0,0.267,0.29,0.043,47.05,-80.91,0
63910.0,-0.301,-0.311,0.055,-45.48,79.69,0
63915.0,0.147,0.25,0.081,56.07,-61.16,0
63920.0,-0.334,-0.313,0.024,-43.06,85.97,0
63925.0,0.26,0.125,0.062,25.11,-76.6,0
63930.0,-0.396,0.096,-0.02,13.64,92.82,0
63935.0,0.097,-0.05,-0.022,-26.61,-102.77,0
63940.0,-0.279,0.127,-0.077,23.76,105.43,0
63945.0,0.298,-0.04,-0.0,-7.67,-90.08,0
63950.0,-0.346,-0.014,0.028,-2.28,85.32,0
63955.0,0.185,-0.052,0.122,-13.22,-56.72,0
63960.0,-0.365,0.13,0.038,19.47,84.07,0
63965.0,0.183,0.07,0.067,19.77,-69.99,0
63970.0,-0.25,0.041,-0.02,9.33,94.47,0
63975.0,0.25,-0.107,-0.012,-23.18,-92.83,0
63980.0,-0.217,0.101,-0.123,22.1,119.46,0
63985.0,0.183,-0.031,0.052,-9.12,-74.06,0
63990.0,-0.183,0.029,-0.01,9.06,93.11,0
63995.0,0.25,-0.081,0.045,-17.65,-79.78,0
64000.0,-0.238,0.139,-0.051,29.77,102.0,0
64005.0,0.197,0.036,0.026,10.38,-82.51,0
64010.0,-0.157,0.001,-0.036,0.2,103.02,0
64015.0,0.264,-0.052,0.105,-10.38,-68.35,0
64020.0,-0.25,0.034,-0.139,6.78,119.09,0
64025.0,0.092,0.075,-0.094,29.65,-135.54,0
64030.0,-0.19,-0.047,-0.079,-12.91,112.63,0
64035.0,0.171,0.027,0.016,8.9,-84.54,0
64040.0,-0.234,-0.088,-0.079,-19.64,108.77,0
64045.0,0.214,0.149,0.009,34.81,-87.55,0
64050.0,-0.188,-0.081,-0.053,-22.47,105.76,0
64055.0,0.207,0.101,0.057,25.22,-74.58,0
64060.0,-0.274,-0.052,-0.055,-10.55,101.43,0
64065.0,0.226,0.089,-0.022,21.43,-95.54,0
64070.0,-0.231,-0.155,-0.132,-30.21,119.74,0
64075.0,0.171,0.183,0.007,46.84,-87.73,0
64080.0,-0.238,-0.129,-0.096,-26.6,111.97,0
64085.0,0.238,0.142,0.126,27.75,-62.02,0
64090.0,-0.325,-0.157,-0.206,-22.27,122.44,0
64095.0,0.164,0.175,-0.077,44.08,-115.18,0
64100.0,-0.205,-0.136,-0.096,-30.99,115.15,0
64105.0,0.255,0.082,0.038,17.65,-81.54,0
64110.0,-0.341,-0.272,-0.156,-35.97,114.56,0
64115.0,0.293,0.285,0.088,43.0,-73.26,0
64120.0,-0.183,-0.119,-0.012,-32.96,93.86,0
64125.0,0.169,0.221,0.069,50.47,-67.74,0
64130.0,-0.334,-0.318,-0.089,-42.59,104.91,0
64135.0,0.288,0.151,0.009,27.69,-88.18,0
64140.0,-0.31,-0.193,-0.197,-27.76,122.38,0
64145.0,0.147,0.341,0.009,66.6,-86.43,0
64150.0,-0.284,-0.289,-0.072,-44.63,104.27,0
64155.0,0.202,0.204,-0.053,44.32,-104.71,0
64160.0,-0.322,-0.201,-0.168,-28.9,117.54,0
64165.0,0.193,0.355,0.045,60.87,-76.82,0
64170.0,-0.392,-0.301,-0.199,-34.43,116.95,0
64175.0,0.245,0.13,-0.089,26.46,-109.94,0
64180.0,-0.389,-0.325,-0.235,-35.56,121.13,0
64185.0,0.19,0.448,0.019,66.91,-84.37,0
64190.0,-0.356,-0.251,-0.091,-34.33,104.41,0
64195.0,0.331,0.18,0.079,27.87,-76.66,0
64200.0,-0.341,-0.416,-0.175,-47.32,117.17,0
64205.0,0.238,0.451,0.026,62.02,-83.78,0
64210.0,-0.346,-0.244,-0.13,-33.39,110.54,0
64215.0,0.231,0.238,-0.065,44.73,-105.73,0
64220.0,-0.365,-0.428,-0.264,-43.53,125.83,0
64225.0,0.231,0.434,-0.067,61.0,-106.28,0
64230.0,-0.404,-0.244,-0.149,-29.53,110.24,0
64235.0,0.236,0.163,0.076,33.41,-72.08,0
64240.0,-0.365,-0.447,-0.163,-48.18,114.07,0
64245.0,0.176,0.465,-0.108,66.07,-121.59,0
64250.0,-0.353,-0.244,-0.187,-31.36,117.91,0
64255.0,0.238,0.262,0.083,46.03,-70.69,0
64260.0,-0.473,-0.435,-0.218,-39.87,114.77,0
64265.0,0.327,0.364,-0.043,47.88,-97.58,0
64270.0,-0.435,-0.318,-0.211,-33.34,115.9,0
64275.0,0.181,0.362,-0.008,63.47,-92.4,0
64280.0,-0.401,-0.521,-0.194,-49.47,115.84,0
64285.0,0.267,0.372,-0.012,54.3,-92.65,0
64290.0,-0.461,-0.368,-0.324,-33.17,125.07,0
64295.0,0.296,0.398,0.038,53.18,-82.69,0
64300.0,-0.411,-0.473,-0.146,-47.35,109.62,0
64305.0,0.279,0.42,-0.022,56.32,-94.5,0
64310.0,-0.401,-0.38,-0.245,-38.97,121.37,0
64315.0,0.252,0.369,0.11,53.3,-66.5,0
64320.0,-0.411,-0.497,-0.206,-47.26,116.67,0
64325.0,0.262,0.41,-0.005,57.41,-91.13,0
64330.0,-0.389,-0.438,-0.182,-45.51,115.1,0
64335.0,0.272,0.369,0.028,53.52,-84.04,0
64340.0,-0.377,-0.514,-0.209,-50.02,118.95,0
64345.0,0.3,0.465,0.107,55.56,-70.33,0
64350.0,-0.372,-0.406,-0.149,-45.38,111.78,0
64355.0,0.288,0.357,0.083,49.97,-73.87,0
64360.0,-0.439,-0.49,-0.261,-43.79,120.74,0
64365.0,0.307,0.479,0.036,57.15,-83.41,0
64370.0,-0.447,-0.409,-0.228,-39.19,117.03,0
64375.0,0.31,0.36,-0.02,49.2,-93.61,0
64380.0,-0.425,-0.581,-0.228,-50.31,118.19,0
64385.0,0.262,0.487,-0.017,61.65,-93.75,0
64390.0,-0.394,-0.409,-0.199,-42.8,116.81,0
64395.0,0.195,0.367,0.002,62.01,-89.41,0
64400.0,-0.487,-0.507,-0.237,-43.08,115.97,0
64405.0,0.305,0.508,-0.01,59.0,-91.87,0
64410.0,-0.442,-0.426,-0.213,-40.93,115.79,0
64415.0,0.319,0.341,-0.113,45.14,-109.47,0
64420.0,-0.408,-0.567,-0.194,-51.42,115.45,0
64425.0,0.307,0.458,0.079,55.27,-75.66,0
64430.0,-0.401,-0.371,-0.161,-40.61,111.84,0
64435.0,0.209,0.357,-0.029,59.39,-97.92,0
64440.0,-0.466,-0.548,-0.371,-42.59,128.57,0
64445.0,0.303,0.432,0.019,54.9,-86.45,0
64450.0,-0.509,-0.421,-0.257,-36.44,116.76,0
64455.0,0.248,-0.282,0.047,-48.19,-79.15,0
64460.0,-0.425,-0.648,-0.285,-51.7,123.87,0
64465.0,0.312,0.374,0.014,50.11,-87.44,0
64470.0,-0.519,-0.426,-0.283,-35.77,118.62,0
64475.0,0.224,0.364,0.002,58.46,-89.49,0
64480.0,-0.435,-0.442,-0.278,-40.6,122.61,0
64485.0,0.279,0.338,0.007,50.49,-88.61,0
64490.0,-0.404,-0.349,0.182,-38.26,65.78,0
64495.0,0.054,-0.191,0.031,-72.05,-60.23,0
64500.0,-0.471,-0.485,0.083,-45.45,79.95,0
64505.0,0.233,0.381,0.014,58.49,-86.57,0
64510.0,-0.437,-0.378,0.179,-38.65,67.71,0
64515.0,0.243,0.343,0.024,54.57,-84.46,0
64520.0,-0.377,-0.509,0.079,-52.89,78.23,0
64525.0,0.284,0.319,0.028,48.22,-84.29,0
64530.0,-0.435,-0.332,0.146,-35.93,71.48,0
64535.0,0.099,-0.347,0.028,-73.42,-74.06,0
64540.0,-0.439,0.427,0.052,43.95,83.22,0
64545.0,0.3,-0.229,0.024,-37.28,-85.52,0
64550.0,-0.382,0.293,0.158,35.3,67.58,0
64555.0,0.226,-0.196,0.047,-40.28,-78.14,0
64560.0,-0.392,0.321,0.055,39.1,82.05,0
64565.0,0.355,-0.162,0.043,-24.38,-83.15,0
64570.0,-0.377,0.151,-0.02,21.84,92.97,0
64575.0,0.106,-0.33,-0.053,-70.18,-116.51,0
64580.0,-0.095,0.379,0.071,72.61,52.98,0
64585.0,0.102,-0.136,-0.036,-51.56,-109.67,0
64590.0,-0.004,0.245,0.074,73.2,2.91,0
64595.0,0.138,-0.356,0.115,-63.32,-50.21,0
64600.0,0.001,0.314,0.122,68.83,-0.49,0
64605.0,0.058,-0.222,-0.06,-69.29,-135.85,0
64610.0,0.035,0.348,0.062,78.48,-29.19,0
64615.0,0.051,-0.294,0.004,-80.06,-85.11,0
64620.0,-0.068,0.266,0.069,69.95,44.73,0
64625.0,0.099,-0.162,0.019,-58.11,-79.29,0
64630.0,0.006,0.242,0.047,78.83,-6.99,0
64635.0,0.188,-0.258,0.103,-50.33,-61.36,0
64640.0,-0.037,0.288,0.093,70.81,21.84,0
64645.0,0.133,-0.129,0.024,-43.68,-79.94,0
64650.0,-0.04,0.228,0.086,67.48,24.81,0
64655.0,0.173,-0.181,0.052,-45.04,-73.23,0
64660.0,-0.131,0.245,0.086,57.44,56.71,0
64665.0,0.142,-0.177,0.067,-48.34,-64.91,0
64670.0,0.003,0.185,0.036,79.08,-5.52,0
64675.0,0.087,-0.205,0.062,-62.49,-54.66,0
64680.0,-0.083,0.271,0.055,69.9,56.55,0
64685.0,0.197,-0.141,0.083,-33.29,-67.09,0
64690.0,-0.088,0.199,0.047,63.44,61.52,0
64695.0,0.185,-0.174,0.064,-41.6,-70.89,0
64700.0,-0.138,0.202,0.012,55.56,85.2,0
64705.0,0.133,-0.134,0.002,-45.17,-89.14,0
64710.0,-0.133,0.171,-0.003,52.04,91.2,0
64715.0,0.176,-0.155,0.064,-39.64,-69.93,0
64720.0,-0.157,0.125,-0.024,38.21,98.81,0
64725.0,0.207,-0.071,-0.0,-19.0,-90.11,0
64730.0,-0.083,0.044,0.007,27.73,85.31,0
64735.0,0.219,-0.007,0.098,-1.58,-65.93,0
64740.0,-0.195,0.094,-0.008,25.67,92.22,0
64745.0,0.212,-0.023,0.059,-6.07,-74.31,0
64750.0,-0.131,0.058,-0.027,23.51,101.57,0
64755.0,0.188,-0.112,0.028,-30.52,-81.42,0
64760.0,-0.19,0.137,-0.058,34.54,106.89,0
64765.0,0.202,0.048,0.059,12.95,-73.61,0
64770.0,-0.15,0.005,0.067,1.87,66.02,0
64775.0,0.197,-0.074,0.021,-20.36,-83.88,0
64780.0,-0.181,-0.004,-0.051,-1.29,105.65,0
64785.0,0.231,0.034,0.079,7.95,-71.2,0
64790.0,-0.186,0.022,-0.094,6.07,116.79,0
64795.0,0.24,0.005,0.021,1.27,-84.97,0
64800.0,-0.246,0.032,-0.02,7.33,94.55,0
64805.0,0.195,0.075,-0.015,20.93,-94.33,0
64810.0,-0.176,-0.026,-0.041,-8.11,103.13,0
64815.0,0.228,-0.016,0.098,-3.73,-66.84,0
64820.0,-0.246,0.01,-0.079,2.25,107.92,0
64825.0,0.133,0.142,-0.029,46.23,-102.38,0
64830.0,-0.198,-0.028,-0.039,-7.96,101.08,0
64835.0,0.224,-0.031,-0.0,-7.78,-90.1,0
64840.0,-0.25,-0.078,-0.146,-15.14,120.33,0
64845.0,0.188,0.139,0.009,36.56,-87.2,0
64850.0,-0.315,-0.086,-0.156,-13.69,116.35,0
64855.0,0.255,0.096,-0.008,20.7,-91.7,0
64860.0,-0.365,-0.086,-0.118,-12.58,107.86,0
64865.0,0.217,0.206,-0.008,43.62,-92.01,0
64870.0,-0.291,-0.179,-0.18,-27.61,121.73,0
64875.0,0.25,0.099,0.086,20.48,-71.06,0
64880.0,-0.349,-0.179,-0.089,-26.46,104.32,0
64885.0,0.173,0.216,0.021,51.04,-83.05,0
64890.0,-0.236,-0.172,-0.134,-32.32,119.68,0
64895.0,0.236,0.159,0.052,33.3,-77.49,0
64900.0,-0.341,-0.169,-0.089,-25.66,104.61,0
64905.0,0.24,0.233,0.067,43.01,-74.51,0
64910.0,-0.293,-0.208,-0.13,-32.92,113.84,0
64915.0,0.228,0.173,-0.032,36.86,-97.86,0
64920.0,-0.341,-0.27,-0.19,-34.66,119.04,0
64925.0,0.195,0.341,-0.058,59.15,-106.53,0
64930.0,-0.346,-0.248,-0.199,-31.89,119.91,0
64935.0,0.267,0.135,0.052,26.35,-78.91,0
64940.0,-0.353,-0.292,-0.168,-36.69,115.43,0
64945.0,0.26,0.396,0.021,56.64,-85.34,0
64950.0,-0.286,-0.268,-0.132,-40.32,114.77,0
64955.0,0.291,0.209,0.052,35.26,-79.81,0
64960.0,-0.327,-0.38,-0.106,-47.89,107.92,0
64965.0,0.267,0.443,0.057,58.4,-77.93,0
64970.0,-0.346,-0.294,-0.19,-36.68,118.71,0
64975.0,0.291,0.142,-0.0,26.0,-90.08,0
64980.0,-0.404,-0.387,-0.228,-39.88,119.45,0
64985.0,0.171,0.439,-0.127,64.08,-126.66,0
64990.0,-0.37,-0.253,-0.178,-31.67,115.63,0
64995.0,0.205,0.214,0.045,45.57,-77.57,0
65000.0,-0.468,-0.462,-0.257,-40.84,118.72,0
65005.0,0.293,0.446,-0.012,56.65,-92.42,0
65010.0,-0.346,-0.232,-0.199,-30.12,119.91,0
65015.0,0.25,0.202,-0.13,35.6,-117.41,0
65020.0,-0.411,-0.473,-0.144,-47.41,109.33,0
65025.0,0.303,0.412,0.05,53.35,-80.64,0
65030.0,-0.337,-0.244,-0.125,-34.17,110.36,0
65035.0,0.233,0.235,0.079,43.69,-71.38,0
65040.0,-0.423,-0.567,-0.249,-49.11,120.54,0
65045.0,0.324,0.415,-0.091,50.91,-105.74,0
65050.0,-0.389,-0.337,-0.118,-39.65,106.83,0
65055.0,0.224,-0.363,-0.075,-57.02,-108.45,0
65060.0,-0.439,-0.464,-0.209,-43.64,115.4,0
65065.0,0.293,0.338,-0.06,48.49,-101.62,0
65070.0,-0.365,-0.332,-0.257,-36.66,125.09,0
65075.0,0.111,0.364,-0.075,69.83,-123.87,0
65080.0,-0.377,-0.428,-0.24,-43.75,122.44,0
65085.0,0.267,0.374,-0.024,54.39,-95.21,0
65090.0,-0.368,-0.399,0.079,-46.72,77.93,0
65095.0,-0.08,-0.09,-0.077,-39.09,133.78,0
65100.0,-0.351,-0.481,0.093,-52.94,75.16,0
65105.0,0.408,0.434,-0.048,46.56,-96.75,0
65110.0,-0.516,-0.476,0.234,-40.02,65.59,0
65115.0,0.257,0.398,-0.017,57.07,-93.82,0
65120.0,-0.437,-0.43,0.179,-42.34,67.71,0
65125.0,0.209,0.405,-0.0,62.68,-90.11,0
65130.0,-0.425,-0.402,0.217,-40.07,62.91,0
65135.0,-0.032,-0.239,-0.0,-82.26,90.7,0
65140.0,-0.432,0.348,0.11,37.94,75.76,0
65145.0,0.296,-0.26,-0.015,-41.35,-92.86,0
65150.0,-0.413,0.262,0.208,29.49,63.29,0
65155.0,0.274,-0.301,-0.094,-46.12,-108.89,0
65160.0,-0.483,0.443,0.27,38.73,60.76,0
65165.0,0.336,-0.294,0.141,-38.88,-67.27,0
65170.0,-0.499,0.369,0.227,33.95,65.55,0
65175.0,-0.049,-0.313,-0.022,-80.23,114.02,0
65180.0,0.126,0.41,0.153,64.25,-39.4,0
65185.0,0.094,-0.318,0.091,-67.63,-46.19,0
65190.0,0.133,0.321,0.21,52.27,-32.26,0
65195.0,0.063,-0.229,0.031,-72.94,-64.1,0
65200.0,0.087,0.396,0.141,67.28,-31.77,0
65205.0,0.056,-0.222,0.055,-70.57,-45.74,0
65210.0,0.121,0.285,0.222,48.46,-28.51,0
65215.0,0.056,-0.268,0.093,-67.91,-31.11,0
65220.0,0.066,0.314,0.095,69.77,-34.55,0
65225.0,0.042,-0.282,-0.039,-78.59,-132.84,0
65230.0,0.085,0.388,0.174,63.47,-25.94,0
65235.0,0.039,-0.284,0.002,-82.11,-87.1,0
65240.0,0.087,0.372,0.172,62.58,-26.89,0
65245.0,0.027,-0.392,-0.024,-84.66,-131.64,0
65250.0,0.157,0.46,0.182,62.48,-40.79,0
65255.0,0.015,-0.349,0.059,-80.02,-14.52,0
65260.0,0.073,0.35,0.172,61.92,-22.96,0
65265.0,0.073,-0.318,0.007,-77.04,-84.68,0
65270.0,0.097,0.405,0.16,65.22,-31.17,0
65275.0,0.082,-0.244,0.055,-67.9,-56.45,0
65280.0,0.042,0.319,0.136,65.95,-17.05,0
65285.0,0.044,-0.306,0.033,-79.77,-53.11,0
65290.0,0.073,0.312,0.107,67.41,-34.17,0
65295.0,0.09,-0.287,-0.005,-72.62,-93.31,0
65300.0,0.013,0.412,0.107,75.31,-6.91,0
65305.0,0.032,-0.313,0.026,-82.48,-51.11,0
65310.0,0.082,0.35,0.062,73.6,-53.12,0
65315.0,0.073,-0.337,0.026,-77.08,-70.41,0
65320.0,-0.032,0.412,0.112,74.19,16.16,0
65325.0,0.035,-0.287,-0.084,-72.39,-157.69,0
65330.0,0.02,0.285,0.083,73.27,-13.61,0
65335.0,0.085,-0.215,0.057,-64.56,-56.07,0
65340.0,-0.03,0.381,0.11,73.38,15.33,0
65345.0,0.126,-0.289,0.057,-64.5,-65.56,0
65350.0,0.039,0.285,0.091,70.92,-23.48,0
65355.0,0.111,-0.205,0.007,-61.52,-86.51,0
65360.0,-0.066,0.309,0.119,66.22,28.95,0
65365.0,0.135,-0.294,0.071,-62.53,-62.14,0
65370.0,0.023,0.254,0.074,73.12,-17.01,0
65375.0,0.09,-0.287,0.043,-70.9,-64.53,0
65380.0,-0.095,0.436,0.057,75.78,58.94,0
65385.0,0.094,-0.251,0.014,-69.17,-81.58,0
65390.0,-0.04,0.178,0.059,68.09,33.71,0
65395.0,0.152,-0.222,0.062,-53.56,-67.84,0
65400.0,-0.107,0.276,-0.015,68.67,97.88,0
65405.0,0.145,-0.136,0.057,-41.15,-68.48,0
65410.0,-0.006,0.216,0.016,85.37,20.59,0
65415.0,0.116,-0.184,0.009,-57.67,-85.47,0
65420.0,-0.102,0.221,0.052,62.59,62.85,0
65425.0,0.149,-0.167,0.04,-47.17,-74.91,0
65430.0,-0.1,0.25,0.028,67.48,74.11,0
65435.0,0.142,-0.174,0.091,-45.93,-57.52,0
65440.0,-0.152,0.221,0.031,54.89,78.59,0
65445.0,0.221,-0.198,0.059,-40.85,-74.96,0
65450.0,-0.013,0.187,0.136,53.87,5.59,0
65455.0,0.202,-0.177,0.098,-38.19,-64.19,0
65460.0,-0.131,0.233,0.024,60.31,79.78,0
65465.0,0.145,-0.131,-0.029,-41.62,-101.38,0
65470.0,-0.071,0.168,0.016,66.63,76.99,0
65475.0,0.114,-0.191,0.031,-58.37,-74.86,0
65480.0,-0.236,0.175,-0.065,35.61,105.41,0
65485.0,0.147,-0.031,0.009,-11.72,-86.43,0
65490.0,-0.068,0.046,-0.003,33.93,92.34,0
65495.0,0.195,-0.153,0.098,-34.99,-63.37,0
65500.0,-0.109,0.163,-0.024,55.62,102.58,0
65505.0,0.178,-0.062,0.071,-17.81,-68.16,0
65510.0,-0.061,0.183,0.059,64.94,45.83,0
65515.0,0.159,-0.076,0.031,-25.15,-79.07,0
65520.0,-0.145,0.092,-0.029,31.75,101.36,0
65525.0,0.133,-0.153,0.028,-48.37,-77.95,0
65530.0,-0.102,0.163,-0.091,50.04,131.88,0
65535.0,0.133,-0.023,0.067,-8.95,-63.34,0
65540.0,-0.205,0.06,-0.0,16.43,90.11,0
65545.0,0.24,-0.105,0.019,-23.48,-85.54,0
65550.0,-0.174,-0.026,-0.082,-7.65,115.21,0
65555.0,0.185,0.118,0.043,31.78,-77.03,0
65560.0,-0.224,0.065,-0.072,15.48,107.87,0
65565.0,0.176,0.008,-0.024,2.5,-97.88,0
65570.0,-0.157,-0.066,-0.072,-21.04,114.71,0
65575.0,0.149,-0.043,0.024,-15.7,-81.05,0
65580.0,-0.195,0.094,-0.055,24.83,105.86,0
65585.0,0.178,0.065,0.031,19.83,-80.22,0
65590.0,-0.274,-0.088,-0.087,-17.02,107.52,0
65595.0,0.284,-0.031,-0.029,-6.12,-95.87,0
65600.0,-0.291,0.017,-0.125,3.13,113.23,0
65605.0,0.202,0.18,0.064,40.34,-72.37,0
65610.0,-0.198,-0.095,-0.022,-25.58,96.33,0
65615.0,0.2,-0.081,-0.101,-19.86,-116.81,0
65620.0,-0.219,-0.028,-0.067,-7.0,107.1,0
65625.0,0.171,0.257,0.024,56.08,-82.16,0
65630.0,-0.291,-0.078,-0.072,-14.66,103.94,0
65635.0,0.252,0.001,0.047,0.12,-79.35,0
65640.0,-0.377,-0.169,-0.166,-22.35,113.7,0
65645.0,0.236,0.278,-0.067,48.62,-105.97,0
65650.0,-0.313,-0.076,-0.115,-12.86,110.25,0
65655.0,0.327,-0.315,-0.094,-42.87,-106.02,0
65660.0,-0.267,-0.234,-0.036,-40.97,97.74,0
65665.0,0.284,0.233,0.004,39.38,-89.11,0
65670.0,-0.289,-0.131,-0.039,-24.24,97.64,0
65675.0,0.231,0.135,0.043,29.83,-79.52,0
65680.0,-0.322,-0.256,-0.209,-33.66,122.93,0
65685.0,0.221,0.252,0.014,48.65,-86.39,0
65690.0,-0.274,-0.196,0.155,-31.85,60.49,0
65695.0,-0.272,-0.294,-0.156,-43.16,119.85,0
65700.0,-0.281,-0.301,0.189,-41.62,56.16,0
65705.0,0.264,0.211,-0.039,38.33,-98.33,0
65710.0,-0.377,-0.227,0.162,-28.92,66.71,0
65715.0,0.26,0.245,-0.139,39.72,-118.21,0
65720.0,-0.31,-0.272,0.179,-37.25,59.99,0
65725.0,0.276,0.24,-0.048,40.54,-99.91,0
65730.0,-0.339,-0.332,0.148,-41.93,66.41,0
65735.0,-0.15,-0.15,-0.079,-41.55,117.93,0
65740.0,-0.325,0.192,0.138,28.56,66.9,0
65745.0,0.296,-0.301,-0.024,-45.44,-94.71,0
65750.0,-0.341,0.281,0.215,34.83,57.78,0
65755.0,0.231,-0.179,-0.015,-37.73,-93.66,0
65760.0,-0.337,0.247,0.208,32.0,58.29,0
65765.0,0.193,-0.248,-0.015,-52.14,-94.38,0
65770.0,-0.356,0.142,0.182,19.55,62.96,0
65775.0,-0.174,-0.153,-0.115,-36.21,123.57,0
65780.0,0.157,0.285,0.095,57.28,-58.67,0
65785.0,-0.092,-0.258,-0.039,-68.79,112.74,0
65790.0,0.178,0.254,0.299,36.16,-30.81,0
65795.0,-0.097,-0.356,-0.041,-73.51,112.94,0
65800.0,0.176,0.333,0.165,54.14,-46.85,0
65805.0,-0.052,-0.169,-0.046,-67.82,131.63,0
65810.0,0.159,0.319,0.177,53.3,-41.98,0
65815.0,-0.133,-0.32,-0.051,-66.03,110.85,0
65820.0,0.178,0.29,0.189,48.19,-43.36,0
65825.0,0.042,-0.27,0.047,-76.82,-41.31,0
65830.0,0.154,0.329,0.217,50.94,-35.35,0
65835.0,-0.111,-0.205,-0.008,-61.44,93.89,0
65840.0,0.197,0.192,0.17,36.44,-49.33,0
65845.0,-0.138,-0.189,-0.113,-46.62,129.33,0
65850.0,0.14,0.348,0.117,62.33,-50.11,0
65855.0,-0.104,-0.205,-0.032,-62.05,106.82,0
65860.0,0.133,0.202,0.184,41.64,-35.81,0
65865.0,0.001,-0.332,-0.043,-82.54,-178.63,0
65870.0,0.13,0.398,0.186,60.26,-34.97,0
65875.0,-0.119,-0.246,-0.067,-60.98,119.61,0
65880.0,0.121,0.36,0.105,66.02,-49.0,0
65885.0,-0.025,-0.39,0.076,-78.36,18.36,0
65890.0,0.185,0.36,0.222,51.18,-39.83,0
65895.0,-0.121,-0.241,-0.099,-57.09,129.15,0
65900.0,0.111,0.372,0.174,60.91,-32.52,0
65905.0,0.02,-0.263,0.033,-81.6,-31.37,0
65910.0,0.188,0.223,0.225,37.32,-39.89,0
65915.0,-0.001,-0.203,0.059,-73.67,1.31,0
65920.0,0.19,0.384,0.232,51.99,-39.36,0
65925.0,-0.011,-0.323,0.036,-83.43,17.11,0
65930.0,0.181,0.353,0.203,52.37,-41.64,0
65935.0,-0.085,-0.325,-0.017,-75.04,101.39,0
65940.0,0.056,0.331,0.062,75.84,-42.21,0
65945.0,-0.004,-0.282,-0.02,-85.96,169.14,0
65950.0,0.056,0.417,0.16,67.88,-19.32,0
65955.0,-0.03,-0.251,-0.032,-80.14,136.33,0
65960.0,0.138,0.276,0.179,50.7,-37.51,0
65965.0,-0.037,-0.347,-0.015,-83.4,111.61,0
65970.0,0.13,0.381,0.112,65.73,-49.29,0
65975.0,-0.025,-0.232,0.064,-73.4,21.49,0
65980.0,0.099,0.333,0.126,64.26,-38.1,0
65985.0,0.111,-0.39,0.012,-74.0,-84.06,0
65990.0,0.147,0.364,0.249,51.6,-30.61,0
65995.0,0.027,-0.198,0.069,-69.46,-21.63,0
66000.0,0.114,0.451,0.143,67.92,-38.41,0
66005.0,-0.018,-0.366,0.038,-83.45,25.54,0
66010.0,0.166,0.29,0.222,46.28,-36.79,0
66015.0,0.023,-0.339,-0.017,-85.22,-127.22,0
66020.0,0.109,0.482,0.22,63.02,-26.32,0
66025.0,0.085,-0.313,0.107,-66.39,-38.32,0
66030.0,0.13,0.36,0.165,59.71,-38.34,0
66035.0,0.039,-0.349,0.038,-81.1,-46.06,0
66040.0,0.082,0.405,0.198,62.07,-22.57,0
66045.0,0.032,-0.234,0.045,-76.69,-35.5,0
66050.0,0.058,0.321,0.045,77.06,-52.37,0
66055.0,0.039,-0.344,-0.024,-82.34,-121.74,0
66060.0,0.023,0.324,0.146,65.52,-8.81,0
66065.0,0.008,-0.272,-0.036,-82.22,-167.24,0
66070.0,0.087,0.386,0.115,69.55,-37.3,0
66075.0,0.037,-0.306,0.026,-81.6,-54.93,0
66080.0,-0.009,0.326,0.124,69.12,3.94,0
66085.0,0.051,-0.359,-0.015,-81.53,-106.05,0
66090.0,0.085,0.422,0.091,73.61,-43.12,0
66095.0,0.018,-0.28,0.014,-85.37,-51.87,0
66100.0,-0.035,0.35,0.088,74.84,21.58,0
66105.0,0.073,-0.28,0.024,-74.68,-72.09,0
66110.0,0.08,0.295,0.134,62.16,-30.91,0
66115.0,0.082,-0.234,0.036,-69.02,-66.69,0
66120.0,-0.025,0.398,0.062,80.47,22.25,0
66125.0,0.073,-0.272,0.05,-72.04,-55.61,0
66130.0,0.042,0.245,0.16,55.96,-14.62,0
66135.0,0.07,-0.28,0.031,-74.62,-66.44,0
66140.0,-0.078,0.386,0.081,73.76,43.91,0
66145.0,0.142,-0.229,0.059,-56.08,-67.32,0
66150.0,0.018,0.25,0.079,72.1,-12.76,0
66155.0,0.082,-0.256,0.045,-69.82,-61.32,0
66160.0,-0.023,0.364,0.138,68.94,9.39,0
66165.0,0.111,-0.253,0.074,-62.21,-56.41,0
66170.0,-0.023,0.288,-0.022,83.71,133.78,0
66175.0,0.104,-0.292,0.021,-70.0,-78.5,0
66180.0,-0.035,0.262,0.074,72.66,25.29,0
66185.0,0.111,-0.162,0.012,-55.44,-84.06,0
66190.0,0.001,0.276,0.052,79.27,-1.14,0
66195.0,0.085,-0.21,0.067,-62.82,-51.85,0
66200.0,-0.066,0.309,0.052,74.78,51.62,0
66205.0,0.07,-0.191,-0.077,-61.34,-137.54,0
66210.0,0.018,0.257,0.026,83.01,-34.46,0
66215.0,0.126,-0.315,-0.156,-57.59,-141.18,0
66220.0,-0.174,0.25,-0.053,53.95,106.99,0
66225.0,0.145,-0.15,-0.051,-44.43,-109.3,0
66230.0,-0.135,0.276,0.064,61.48,64.62,0
66235.0,0.207,-0.057,0.067,-14.67,-72.15,0
66240.0,-0.111,0.077,0.038,33.24,71.22,0
66245.0,0.193,-0.157,0.126,-34.35,-56.7,0
66250.0,-0.092,0.197,0.038,63.12,67.68,0
66255.0,0.123,-0.354,-0.13,-63.18,-136.48,0
66260.0,-0.152,0.147,-0.005,43.91,91.95,0
66265.0,0.121,-0.162,-0.036,-52.15,-106.74,0
66270.0,-0.114,0.089,-0.103,30.1,132.22,0
66275.0,0.109,-0.035,0.031,-17.37,-74.23,0
66280.0,-0.169,0.175,-0.022,45.82,97.4,0
66285.0,0.205,-0.098,-0.029,-25.29,-98.1,0
66290.0,-0.152,0.075,0.088,23.03,59.91,0
66295.0,-0.262,-0.229,-0.101,-39.21,111.05,0
66300.0,-0.114,0.149,0.095,45.09,50.06,0
66305.0,0.116,0.015,-0.144,4.61,-141.17,0
66310.0,-0.159,0.001,0.115,0.16,54.3,0
66315.0,0.25,-0.1,-0.063,-21.2,-104.07,0
66320.0,-0.234,0.187,0.052,38.04,77.39,0
66325.0,0.183,-0.011,-0.213,-2.32,-139.4,0
66330.0,-0.097,-0.002,0.107,-0.73,42.14,0
66335.0,-0.337,-0.265,-0.12,-36.58,109.64,0
66340.0,-0.15,0.211,0.081,51.13,61.6,0
66345.0,0.224,-0.119,-0.132,-24.64,-120.56,0
66350.0,-0.222,0.149,0.136,29.81,58.45,0
66355.0,0.221,-0.239,-0.123,-43.36,-118.97,0
66360.0,-0.222,0.151,0.194,27.23,48.87,0
66365.0,0.133,-0.177,-0.072,-49.45,-118.55,0
66370.0,-0.27,0.245,0.091,40.72,71.42,0
66375.0,-0.224,-0.318,-0.048,-54.21,102.16,0
66380.0,0.154,0.223,0.165,44.68,-43.11,0
66385.0,-0.219,-0.193,-0.127,-37.34,120.14,0
66390.0,0.257,0.305,0.126,46.74,-63.81,0
66395.0,-0.25,-0.268,-0.111,-44.36,113.82,0
66400.0,0.243,0.139,0.134,26.7,-61.17,0
66405.0,-0.14,-0.145,-0.053,-44.14,110.73,0
66410.0,0.2,0.252,0.158,44.72,-51.72,0
66415.0,-0.25,-0.205,-0.051,-38.8,101.44,0
66420.0,0.176,0.166,0.141,36.34,-51.3,0
66425.0,-0.238,-0.251,-0.182,-39.89,127.42,0
66430.0,0.195,0.218,0.076,46.22,-68.65,0
66435.0,-0.265,-0.306,-0.089,-47.61,108.58,0
66440.0,0.209,0.254,0.174,43.03,-50.21,0
66445.0,-0.157,-0.234,-0.012,-56.07,94.51,0
66450.0,0.228,0.252,0.174,41.24,-52.65,0
66455.0,-0.234,-0.215,-0.082,-40.97,109.3,0
66460.0,0.164,0.192,0.129,42.66,-51.81,0
66465.0,-0.107,-0.227,-0.067,-60.91,122.29,0
66470.0,0.183,0.238,0.167,43.79,-47.58,0
66475.0,-0.217,-0.308,-0.065,-53.71,106.7,0
66480.0,0.269,0.283,0.273,36.46,-44.65,0
66485.0,-0.145,-0.198,0.004,-53.79,88.27,0
66490.0,0.219,0.269,0.165,44.44,-53.03,0
66495.0,-0.231,-0.272,-0.158,-44.18,124.42,0
66500.0,0.171,0.154,0.059,40.34,-70.83,0
66505.0,-0.152,-0.153,-0.142,-36.29,132.95,0
66510.0,0.171,0.235,0.148,46.12,-49.12,0
66515.0,-0.135,-0.227,0.004,-59.15,88.14,0
66520.0,0.205,0.175,0.261,27.89,-38.13,0
66525.0,-0.102,-0.201,0.014,-62.85,82.2,0
66530.0,0.219,0.302,0.186,46.43,-49.59,0
66535.0,-0.217,-0.224,-0.115,-42.43,118.01,0
66540.0,0.183,0.192,0.148,39.22,-51.03,0
66545.0,-0.1,-0.304,-0.07,-68.17,125.06,0
66550.0,0.19,0.321,0.131,54.28,-55.38,0
66555.0,-0.207,-0.196,-0.048,-42.61,103.11,0
66560.0,0.169,0.362,0.203,53.9,-39.7,0
66565.0,-0.188,-0.332,-0.082,-58.31,113.5,0
66570.0,0.248,0.281,0.201,41.36,-50.97,0
66575.0,-0.21,-0.335,-0.039,-57.5,100.46,0
66580.0,0.178,0.295,0.153,51.49,-49.38,0
66585.0,0.035,-0.272,0.081,-72.08,-23.1,0
66590.0,0.209,0.209,0.285,30.59,-36.34,0
66595.0,-0.088,-0.179,0.004,-63.91,87.13,0
66600.0,0.19,0.314,0.217,47.4,-41.17,0
66605.0,-0.04,-0.26,0.007,-81.22,80.29,0
66610.0,0.228,0.18,0.232,28.96,-44.58,0
66615.0,-0.126,-0.248,-0.039,-62.08,107.09,0
66620.0,0.2,0.3,0.244,43.57,-39.33,0
66625.0,-0.023,-0.222,0.04,-78.21,29.61,0
66630.0,0.164,0.384,0.203,55.78,-38.89,0
66635.0,-0.068,-0.32,0.019,-77.51,74.66,0
66640.0,0.161,0.302,0.21,48.74,-37.51,0
66645.0,0.049,-0.284,0.036,-78.0,-54.02,0
66650.0,0.224,0.341,0.285,43.26,-38.18,0
66655.0,-0.018,-0.306,0.088,-73.6,11.61,0
66660.0,0.161,0.278,0.215,45.98,-36.89,0
66665.0,-0.004,-0.301,-0.015,-87.1,165.74,0
66670.0,0.149,0.362,0.191,56.17,-38.03,0
66675.0,-0.083,-0.205,-0.027,-67.05,107.9,0
66680.0,0.188,0.288,0.206,45.96,-42.42,0
66685.0,-0.054,-0.318,-0.017,-79.89,107.62,0
66690.0,0.185,0.321,0.244,46.38,-37.25,0
66695.0,-0.107,-0.241,-0.024,-65.6,102.85,0
66700.0,0.114,0.417,0.177,63.27,-32.72,0
66705.0,0.008,-0.38,-0.041,-83.71,-168.69,0
66710.0,0.085,0.278,0.122,61.94,-34.88,0
66715.0,-0.066,-0.256,-0.01,-75.37,98.59,0
66720.0,0.13,0.403,0.134,65.13,-44.27,0
66725.0,0.02,-0.371,0.016,-85.99,-50.98,0
66730.0,0.147,0.35,0.217,53.13,-34.07,0
66735.0,-0.018,-0.275,0.081,-73.19,12.61,0
66740.0,0.138,0.374,0.165,60.15,-39.84,0
66745.0,-0.004,-0.32,0.014,-87.41,15.03,0
66750.0,0.097,0.326,0.126,63.97,-37.43,0
66755.0,-0.006,-0.246,-0.017,-85.76,160.29,0
66760.0,0.039,0.441,0.119,74.1,-18.25,0
66765.0,0.027,-0.366,0.016,-85.02,-59.13,0
66770.0,0.121,0.386,0.182,60.54,-33.63,0
66775.0,-0.009,-0.354,-0.0,-88.62,92.67,0
66780.0,0.126,0.465,0.165,65.99,-37.3,0
66785.0,0.011,-0.342,-0.005,-88.02,-116.04,0
66790.0,0.164,0.372,0.172,57.42,-43.61,0
66795.0,0.003,-0.33,0.04,-83.01,-4.87,0
66800.0,0.051,0.357,0.186,61.59,-15.4,0
66805.0,0.042,-0.306,0.028,-80.64,-55.83,0
66810.0,0.13,0.415,0.105,68.03,-51.16,0
66815.0,-0.068,-0.268,-0.216,-49.76,162.42,0
66820.0,0.111,0.317,0.201,54.07,-28.98,0
66825.0,0.063,-0.38,0.057,-77.36,-47.96,0
66830.0,0.049,0.408,0.129,71.31,-20.78,0
66835.0,-0.006,-0.26,-0.051,-78.91,173.09,0
66840.0,-0.001,0.441,0.062,82.02,1.26,0
66845.0,0.023,-0.361,-0.029,-84.17,-142.21,0
66850.0,0.044,0.29,0.1,69.34,-23.78,0
66855.0,0.03,-0.5,-0.24,-64.2,-172.92,0
66860.0,0.042,0.455,0.11,75.55,-20.82,0
66865.0,0.044,-0.313,0.064,-76.02,-34.49,0
66870.0,0.142,0.259,0.165,49.96,-40.81,0
66875.0,0.063,-0.339,0.059,-75.65,-46.79,0
66880.0,0.032,0.434,0.1,76.37,-17.8,0
66885.0,0.097,-0.277,0.081,-65.51,-50.08,0
66890.0,0.08,0.333,0.134,64.95,-30.91,0
66895.0,-0.401,-0.483,-0.194,-47.3,115.84,0
66900.0,-0.049,0.386,0.057,78.95,40.79,0
66905.0,0.149,-0.246,-0.19,-45.55,-141.74,0
66910.0,0.078,0.235,0.021,71.11,-74.76,0
66915.0,0.085,-0.296,-0.331,-40.95,-165.62,0
66920.0,0.008,0.333,0.024,85.72,-19.25,0
66925.0,0.118,-0.203,-0.178,-43.56,-146.32,0
66930.0,0.037,0.29,0.047,78.29,-37.89,0
66935.0,-0.387,-0.459,-0.24,-45.25,121.8,0
66940.0,-0.016,0.293,0.093,72.14,9.6,0
66945.0,0.097,-0.239,-0.202,-46.9,-154.34,0
66950.0,-0.035,0.285,0.119,66.47,16.29,0
66955.0,0.097,-0.481,-0.151,-69.52,-147.38,0
66960.0,-0.126,0.3,0.153,56.56,39.47,0
66965.0,0.082,-0.308,-0.123,-64.41,-146.06,0
66970.0,-0.061,0.331,0.138,65.42,23.85,0
66975.0,-0.413,-0.394,-0.161,-41.66,111.27,0
66980.0,0.233,0.24,0.007,45.8,-88.33,0
66985.0,-0.365,-0.292,-0.211,-34.65,120.02,0
66990.0,0.267,0.288,0.15,43.22,-60.58,0
66995.0,-0.435,-0.418,-0.206,-41.01,115.39,0
67000.0,0.346,0.259,0.122,35.26,-70.61,0
67005.0,-0.325,-0.224,-0.17,-31.48,117.7,0
67010.0,0.164,0.278,0.112,54.49,-55.61,0
67015.0,-0.351,-0.339,-0.211,-39.65,121.03,0
67020.0,0.202,0.187,0.019,42.69,-84.7,0
67025.0,-0.315,-0.289,-0.273,-34.73,130.95,0
67030.0,0.197,0.29,0.086,53.45,-66.51,0
67035.0,-0.334,-0.344,-0.06,-45.39,100.22,0
67040.0,0.317,0.214,0.088,32.99,-74.46,0
67045.0,-0.296,-0.246,-0.127,-37.38,113.28,0
67050.0,0.202,0.3,0.126,51.5,-57.96,0
67055.0,-0.293,-0.337,-0.142,-45.97,115.77,0
67060.0,0.296,0.183,0.107,30.14,-70.04,0
67065.0,-0.305,-0.308,-0.132,-42.81,113.39,0
67070.0,0.233,0.314,0.122,50.06,-62.45,0
67075.0,-0.358,-0.311,-0.144,-38.83,111.91,0
67080.0,0.279,0.226,0.103,37.22,-69.8,0
67085.0,-0.267,-0.205,-0.151,-33.78,119.52,0
67090.0,0.24,0.223,0.158,37.83,-56.76,0
67095.0,-0.296,-0.344,-0.142,-46.38,115.59,0
67100.0,0.279,0.252,0.138,38.99,-63.59,0
67105.0,-0.262,-0.241,-0.087,-41.13,108.27,0
67110.0,0.183,0.233,0.134,45.77,-53.85,0
67115.0,-0.31,-0.282,-0.178,-38.27,119.79,0
67120.0,0.152,0.159,0.021,45.96,-82.07,0
67125.0,-0.243,-0.153,-0.206,-25.58,130.31,0
67130.0,0.217,0.202,0.122,39.08,-60.66,0
67135.0,-0.315,-0.366,-0.111,-47.61,109.34,0
67140.0,0.293,0.147,0.138,24.33,-64.72,0
67145.0,-0.262,-0.193,-0.015,-36.35,93.22,0
67150.0,0.219,0.317,0.146,50.29,-56.36,0
67155.0,-0.274,-0.335,-0.149,-47.0,118.49,0
67160.0,0.25,0.161,0.141,29.29,-60.6,0
67165.0,-0.169,-0.277,-0.055,-57.32,108.17,0
67170.0,0.171,0.317,0.148,54.45,-49.12,0
67175.0,-0.226,-0.32,-0.041,-54.3,100.29,0
67180.0,0.327,0.214,0.186,29.6,-60.3,0
67185.0,-0.188,-0.222,-0.027,-49.46,98.09,0
67190.0,0.214,0.295,0.155,48.13,-54.06,0
67195.0,-0.243,-0.253,-0.161,-40.98,123.48,0
67200.0,0.209,0.127,0.1,28.78,-64.43,0
67205.0,-0.138,-0.201,0.021,-55.19,81.28,0
67210.0,0.164,0.262,0.191,46.09,-40.6,0
67215.0,-0.214,-0.208,-0.091,-41.71,113.08,0
67220.0,0.293,0.149,0.191,23.06,-56.89,0
67225.0,-0.2,-0.208,-0.008,-46.06,92.17,0
67230.0,0.2,0.269,0.191,44.18,-46.26,0
67235.0,-0.179,-0.244,-0.029,-53.41,99.27,0
67240.0,0.298,0.149,0.184,23.05,-58.31,0
67245.0,-0.202,-0.287,-0.07,-53.24,109.03,0
67250.0,0.193,0.321,0.174,51.05,-47.84,0
67255.0,-0.2,-0.229,-0.108,-45.23,118.39,0
67260.0,0.264,0.206,0.155,33.96,-59.58,0
67265.0,-0.128,-0.301,-0.017,-66.75,97.62,0
67270.0,0.152,0.226,0.184,43.4,-39.54,0
67275.0,-0.19,-0.143,-0.125,-32.14,123.25,0
67280.0,0.226,0.228,0.184,38.03,-50.87,0
67285.0,-0.121,-0.265,-0.06,-62.98,116.46,0
67290.0,0.212,0.252,0.158,43.67,-53.33,0
67295.0,-0.15,-0.28,-0.084,-58.42,119.34,0
67300.0,0.185,0.329,0.196,50.62,-43.42,0
67305.0,-0.147,-0.263,-0.005,-60.7,92.02,0
67310.0,0.236,0.214,0.208,34.21,-48.58,0
67315.0,-0.207,-0.229,-0.039,-47.4,100.58,0
67320.0,0.202,0.238,0.112,45.78,-60.98,0
67325.0,-0.095,-0.186,-0.032,-61.8,108.41,0
67330.0,0.149,0.202,0.208,38.22,-35.72,0
67335.0,-0.181,-0.236,-0.032,-52.17,99.88,0
67340.0,0.181,0.233,0.179,42.46,-45.23,0
67345.0,-0.116,-0.15,-0.048,-50.04,112.55,0
67350.0,0.154,0.309,0.105,58.91,-55.77,0
67355.0,-0.138,-0.308,-0.082,-62.53,120.69,0
67360.0,0.183,0.204,0.15,40.74,-50.58,0
67365.0,-0.056,-0.26,0.055,-73.21,45.91,0
67370.0,0.178,0.381,0.273,49.5,-33.18,0
67375.0,-0.119,-0.263,0.002,-65.69,89.04,0
67380.0,0.233,0.221,0.206,35.39,-48.62,0
67385.0,-0.104,-0.272,-0.034,-68.07,108.01,0
67390.0,0.166,0.324,0.143,55.87,-49.25,0
67395.0,-0.116,-0.157,-0.048,-51.35,112.55,0
67400.0,0.145,0.271,0.17,50.57,-40.47,0
67405.0,0.032,-0.289,0.045,-79.16,-35.5,0
67410.0,0.149,0.226,0.191,42.92,-38.03,0
67415.0,-0.162,-0.224,-0.209,-40.37,142.22,0
67420.0,0.114,0.364,0.134,64.3,-40.35,0
67425.0,-0.102,-0.327,-0.017,-72.48,99.56,0
67430.0,0.226,0.345,0.227,47.14,-44.88,0
67435.0,-0.133,-0.332,0.05,-66.85,69.45,0
67440.0,0.264,0.345,0.253,43.32,-46.22,0
67445.0,-0.085,-0.383,0.007,-77.41,85.44,0
67450.0,0.181,0.427,0.215,56.65,-40.02,0
67455.0,-0.068,-0.428,-0.216,-62.12,162.42,0
67460.0,0.154,0.4,0.196,58.08,-38.22,0
67465.0,-0.078,-0.289,-0.034,-73.61,113.51,0
67470.0,0.193,0.309,0.186,49.1,-45.94,0
67475.0,-0.066,-0.299,0.026,-76.65,68.55,0
67480.0,0.087,0.329,0.131,64.37,-33.6,0
67485.0,-0.028,-0.383,-0.072,-78.57,159.02,0
67490.0,0.152,0.369,0.227,53.51,-33.78,0
67495.0,-0.49,-0.584,-0.324,-44.83,123.45,0
67500.0,0.149,0.427,-0.134,64.77,-131.98,0
67505.0,0.058,-0.354,-0.213,-57.97,-164.68,0
67510.0,0.205,0.427,0.002,64.39,-89.44,0
67515.0,-0.076,-0.344,-0.331,-45.41,167.13,0
67520.0,0.185,0.46,-0.003,68.06,-90.86,0
67525.0,0.047,-0.38,-0.213,-60.11,-167.7,0
67530.0,0.207,0.29,-0.036,54.1,-99.95,0
67535.0,-0.42,-0.562,-0.252,-48.92,120.92,0
67540.0,0.099,0.482,0.033,77.75,-71.54,0
67545.0,0.044,-0.373,-0.225,-58.37,-168.92,0
67550.0,0.142,0.326,0.074,63.83,-62.58,0
67555.0,-0.016,-0.493,-0.249,-63.1,176.39,0
67560.0,0.082,0.436,-0.017,79.08,-101.76,0
67565.0,0.035,-0.416,-0.223,-61.52,-171.19,0
67570.0,0.166,0.36,0.062,63.75,-69.59,0
67575.0,-0.425,-0.529,-0.283,-45.99,123.64,0
67580.0,0.092,0.391,-0.065,73.92,-125.25,0
67585.0,-0.442,-0.409,-0.24,-39.12,118.49,0
67590.0,0.183,0.35,0.052,61.47,-74.06,0
67595.0,-0.408,-0.567,-0.206,-51.09,116.8,0
67600.0,0.327,0.384,0.071,48.93,-77.67,0
67605.0,-0.451,-0.378,-0.149,-38.47,108.25,0
67610.0,0.298,0.364,0.083,49.68,-74.36,0
67615.0,-0.418,-0.533,-0.328,-45.1,128.16,0
67620.0,0.296,0.396,-0.039,53.01,-97.46,0
67625.0,-0.463,-0.339,-0.213,-33.63,114.73,0
67630.0,0.25,0.324,0.117,49.55,-64.94,0
67635.0,-0.392,-0.473,-0.178,-47.76,114.39,0
67640.0,0.276,0.283,0.033,45.48,-83.17,0
67645.0,-0.401,-0.294,-0.206,-33.09,117.21,0
67650.0,0.231,0.238,0.038,45.44,-80.68,0
67655.0,-0.396,-0.411,-0.257,-41.05,122.91,0
67660.0,0.305,0.285,0.028,42.97,-84.69,0
67665.0,-0.42,-0.304,-0.221,-32.59,117.7,0
67670.0,0.202,0.343,0.095,56.9,-64.74,0
67675.0,-0.401,-0.519,-0.261,-47.31,123.08,0
67680.0,0.26,0.353,-0.06,52.91,-103.07,0
67685.0,-0.406,-0.327,-0.18,-36.4,113.91,0
67690.0,0.205,0.278,0.062,52.48,-73.18,0
67695.0,-0.425,-0.411,-0.173,-41.87,112.12,0
67700.0,0.298,0.19,0.043,32.22,-81.84,0
67705.0,-0.353,-0.229,-0.175,-30.17,116.37,0
67710.0,0.219,0.25,0.11,45.54,-63.38,0
67715.0,-0.404,-0.44,-0.237,-43.22,120.47,0
67720.0,0.279,0.29,0.019,46.09,-86.15,0
67725.0,-0.406,-0.287,-0.194,-32.5,115.58,0
67730.0,0.188,0.333,0.095,57.71,-63.08,0
67735.0,-0.411,-0.473,-0.211,-45.71,117.2,0
67740.0,0.312,0.245,0.071,37.38,-77.12,0
67745.0,-0.413,-0.265,-0.218,-29.58,117.85,0
67750.0,0.19,0.367,0.047,61.88,-75.98,0
67755.0,-0.344,-0.442,-0.192,-48.33,119.18,0
67760.0,0.264,0.214,0.107,36.82,-67.9,0
67765.0,-0.284,-0.296,-0.125,-43.7,113.75,0
67770.0,0.209,0.341,0.107,55.36,-62.85,0
67775.0,-0.337,-0.349,-0.199,-41.75,120.61,0
67780.0,0.329,0.194,0.138,28.58,-67.18,0
67785.0,-0.394,-0.342,-0.17,-38.53,113.39,0
67790.0,0.252,0.283,0.105,46.0,-67.42,0
67795.0,-0.365,-0.32,-0.216,-37.05,120.58,0
67800.0,0.291,0.223,0.098,36.04,-71.41,0
67805.0,-0.267,-0.339,-0.087,-50.4,107.96,0
67810.0,0.24,0.247,0.079,44.33,-71.9,0
67815.0,-0.37,-0.311,-0.146,-37.98,111.59,0
67820.0,0.305,0.266,0.069,40.41,-77.25,0
67825.0,-0.31,-0.306,-0.132,-42.22,113.06,0
67830.0,0.219,0.266,0.105,47.65,-64.39,0
67835.0,-0.258,-0.335,-0.084,-51.0,108.1,0
67840.0,0.272,0.254,0.196,37.22,-54.19,0
67845.0,-0.219,-0.304,-0.072,-52.75,108.23,0
67850.0,0.329,0.23,0.244,29.36,-53.46,0
67855.0,-0.277,-0.38,-0.094,-52.46,108.72,0
