time_ms,accel_x,accel_y,accel_z,pitch,roll,sync
911799.0,-0.017,0.01,-0.018,22.94,137.38,0
911804.0,-0.017,0.018,0.025,30.29,33.52,0
911809.0,-0.002,0.01,-0.023,24.34,174.41,0
911814.0,-0.024,0.025,0.013,42.35,61.18,0
911819.0,-0.017,0.018,-0.023,31.89,143.97,0
911824.0,0.007,0.037,0.008,73.2,-41.5,0
911829.0,-0.007,-0.018,0.015,-47.19,24.4,0
911834.0,-0.005,-0.011,0.004,-62.53,52.82,0
911839.0,-0.017,0.01,0.011,27.72,57.21,0
911844.0,0.0,0.008,-0.04,11.4,-179.77,0
911849.0,0.0,0.022,0.015,55.28,-0.59,0
911854.0,-0.012,-0.018,-0.025,-33.39,154.9,0
911859.0,-0.007,-0.026,-0.008,-66.71,140.3,0
911864.0,0.017,0.015,0.032,22.61,-27.69,0
911869.0,0.01,-0.023,0.037,-31.15,-14.73,0
911874.0,0.0,-0.006,0.018,-19.65,-0.51,0
911879.0,0.017,-0.009,-0.016,-20.86,-132.76,0
911884.0,0.005,0.01,-0.018,29.02,-164.66,0
911889.0,0.007,-0.009,-0.006,-42.67,-129.56,0
911894.0,0.007,-0.009,0.027,-17.17,-14.97,0
911899.0,-0.002,0.001,0.02,2.24,6.29,0
911904.0,-0.021,0.008,-0.02,15.1,133.69,0
911909.0,-0.014,0.03,0.004,63.64,76.12,0
911914.0,-0.017,0.018,-0.011,41.52,123.18,0
911919.0,0.019,0.001,0.025,1.45,-37.62,0
911924.0,0.005,0.022,0.004,74.81,-54.65,0
911929.0,-0.002,-0.006,0.03,-12.04,4.28,0
911934.0,0.003,-0.004,-0.018,-12.36,-171.94,0
911939.0,-0.019,0.022,-0.013,43.98,124.9,0
911944.0,-0.002,0.015,0.042,19.9,3.06,0
911949.0,-0.007,-0.018,-0.061,-16.61,173.45,0
911954.0,0.012,-0.006,0.018,-16.46,-34.16,0
911959.0,0.003,0.003,0.027,6.6,-5.31,0
911964.0,-0.031,-0.002,0.018,-2.56,60.0,0
911969.0,0.003,0.008,-0.004,60.73,-145.18,0
911974.0,-0.019,0.013,0.006,32.7,72.73,0
911979.0,-0.012,0.01,-0.032,16.74,159.97,0
911984.0,0.003,-0.026,-0.018,-54.5,-171.94,0
911989.0,-0.007,0.015,0.006,58.82,49.94,0
911994.0,-0.002,0.01,0.037,15.63,3.45,0
911999.0,-0.014,-0.002,0.001,-6.39,85.51,0
912004.0,-0.007,-0.002,0.013,-6.13,28.22,0
912009.0,-0.033,0.025,0.001,36.55,88.08,0
912014.0,-0.002,-0.004,0.006,-32.29,20.73,0
912019.0,0.005,0.008,0.02,20.93,-13.72,0
912024.0,0.0,0.015,-0.018,40.05,-179.49,0
912029.0,-0.036,0.008,-0.052,7.25,145.26,0
912034.0,0.022,-0.047,-0.028,-53.28,-141.83,0
912039.0,-0.014,-0.023,0.004,-57.7,76.12,0
912044.0,0.007,0.018,0.015,45.7,-25.37,0
912049.0,0.0,0.006,0.015,19.84,-0.59,0
912054.0,0.01,-0.004,0.006,-19.31,-58.76,0
912059.0,-0.024,-0.002,0.013,-3.36,61.18,0
912064.0,0.0,-0.011,-0.028,-22.03,-179.67,0
912069.0,-0.005,0.003,-0.011,15.14,156.91,0
912074.0,0.003,0.027,0.001,84.14,-66.38,0
912079.0,-0.012,-0.011,0.004,-42.2,73.45,0
912084.0,0.026,-0.002,0.008,-3.29,-72.61,0
912089.0,0.003,-0.028,-0.018,-56.89,-171.94,0
912094.0,-0.014,0.003,0.013,9.39,47.35,0
912099.0,-0.007,0.003,0.008,16.36,40.24,0
912104.0,-0.002,-0.023,0.001,-83.84,63.45,0
912109.0,-0.012,0.037,0.013,64.35,42.07,0
912114.0,-0.019,0.013,0.035,17.91,28.74,0
912119.0,0.007,-0.009,-0.018,-24.27,-157.85,0
912124.0,-0.002,-0.014,0.032,-22.77,3.96,0
912129.0,-0.009,-0.018,-0.001,-62.63,97.73,0
912134.0,-0.005,0.006,0.025,12.37,10.47,0
912139.0,-0.021,-0.006,-0.049,-6.79,156.49,0
912144.0,-0.012,-0.002,-0.025,-3.28,154.9,0
912149.0,0.017,0.003,0.013,8.49,-52.28,0
912154.0,0.003,0.013,0.044,16.08,-3.31,0
912159.0,0.031,0.008,0.006,14.07,-79.31,0
912164.0,0.0,-0.002,-0.004,-23.47,-177.51,0
912169.0,0.022,-0.006,-0.011,-14.74,-116.57,0
912174.0,0.007,0.006,0.015,18.06,-25.37,0
912179.0,-0.009,0.01,-0.001,47.51,97.73,0
912184.0,0.017,0.008,-0.037,11.05,-155.54,0
912189.0,-0.002,0.01,-0.016,33.29,171.87,0
912194.0,-0.007,-0.009,0.015,-27.31,24.4,0
912199.0,-0.005,-0.026,-0.03,-40.07,171.23,0
912204.0,0.015,0.001,0.008,2.73,-60.26,0
912209.0,-0.019,-0.03,-0.02,-47.39,137.09,0
912214.0,-0.009,-0.004,-0.001,-22.78,97.73,0
912219.0,-0.014,-0.04,-0.006,-68.84,113.12,0
912224.0,-0.019,0.013,0.011,30.36,60.62,0
912229.0,-0.017,-0.004,-0.004,-13.21,102.47,0
912234.0,-0.005,0.001,0.02,2.2,12.86,0
912239.0,0.024,-0.014,-0.006,-28.63,-104.13,0
912244.0,0.007,0.006,0.03,10.3,-13.82,0
912249.0,-0.031,0.015,0.018,22.98,60.0,0
912254.0,0.012,-0.011,0.02,-25.31,-30.9,0
912259.0,0.01,-0.028,0.015,-56.78,-32.17,0
912264.0,-0.009,-0.009,0.027,-16.83,18.93,0
912269.0,0.005,-0.006,-0.001,-51.32,-104.48,0
912274.0,-0.024,-0.004,-0.008,-8.98,109.58,0
912279.0,-0.024,0.003,-0.023,5.53,133.82,0
912284.0,0.017,-0.023,-0.02,-41.1,-140.37,0
912289.0,-0.029,-0.009,0.008,-16.44,73.8,0
912294.0,-0.024,0.013,0.037,16.18,32.71,0
912299.0,-0.005,-0.011,0.02,-28.25,12.86,0
912304.0,-0.012,-0.002,-0.011,-5.68,132.58,0
912309.0,0.017,0.013,-0.016,28.99,-132.76,0
912314.0,-0.002,0.018,0.006,70.22,20.73,0
912319.0,0.024,0.001,0.011,1.73,-66.07,0
912324.0,-0.009,0.034,-0.001,74.52,97.73,0
912329.0,-0.002,0.015,0.008,60.46,15.07,0
912334.0,-0.017,-0.002,-0.016,-4.0,133.3,0
912339.0,-0.002,-0.011,-0.013,-39.75,170.43,0
912344.0,-0.014,-0.014,0.025,-25.22,29.55,0
912349.0,0.024,-0.011,-0.013,-22.11,-118.8,0
912354.0,-0.024,-0.026,-0.016,-41.9,123.34,0
912359.0,-0.002,-0.014,0.004,-72.95,32.48,0
912364.0,-0.019,0.025,-0.028,36.43,145.48,0
912369.0,-0.019,-0.002,-0.016,-3.71,129.47,0
912374.0,0.005,-0.009,-0.04,-12.41,-172.88,0
912379.0,-0.009,0.032,0.004,72.52,69.56,0
912384.0,-0.019,0.02,-0.011,42.36,119.75,0
912389.0,-0.009,-0.021,-0.018,-45.56,152.43,0
912394.0,0.019,0.01,0.013,23.98,-55.88,0
912399.0,0.005,-0.016,0.004,-69.19,-54.65,0
912404.0,-0.002,-0.038,0.018,-64.35,7.13,0
912409.0,0.015,0.006,0.011,17.21,-53.64,0
912414.0,-0.009,-0.009,0.018,-23.48,27.78,0
912419.0,0.017,0.01,-0.013,25.77,-128.06,0
912424.0,0.003,-0.014,0.011,-50.98,-13.43,0
912429.0,0.005,-0.023,-0.001,-77.55,-104.48,0
912434.0,0.003,0.03,-0.018,58.33,-171.94,0
912439.0,-0.002,-0.004,-0.001,-57.17,119.76,0
912444.0,-0.005,0.013,0.027,24.64,9.57,0
912449.0,-0.017,-0.006,-0.049,-7.01,161.34,0
912454.0,0.0,0.013,-0.004,73.94,-177.51,0
912459.0,-0.014,-0.009,-0.004,-30.89,104.49,0
912464.0,-0.007,-0.009,0.025,-18.64,15.66,0
912469.0,-0.017,-0.002,-0.004,-5.36,102.47,0
912474.0,-0.014,0.03,0.03,41.77,25.45,0
912479.0,-0.017,-0.009,0.006,-26.48,70.42,0
912484.0,-0.014,0.022,0.006,55.45,67.43,0
912489.0,0.024,-0.023,-0.023,-34.88,-133.44,0
912494.0,-0.002,-0.023,-0.016,-55.68,171.87,0
912499.0,-0.017,-0.016,0.018,-33.2,42.88,0
912504.0,-0.002,-0.011,-0.008,-51.93,165.2,0
912509.0,-0.021,0.02,0.004,42.63,80.68,0
912514.0,-0.014,-0.002,0.006,-5.92,67.43,0
912519.0,-0.014,0.003,-0.004,12.28,104.49,0
912524.0,-0.007,0.01,-0.04,14.47,169.94,0
912529.0,-0.017,-0.03,0.039,-35.33,22.83,0
912534.0,0.0,-0.033,-0.047,-34.98,-179.8,0
912539.0,0.022,-0.018,0.006,-39.21,-74.78,0
912544.0,-0.033,-0.002,0.02,-2.34,58.72,0
912549.0,-0.021,-0.011,0.015,-22.94,54.1,0
912554.0,-0.014,0.003,-0.001,12.62,95.14,0
912559.0,-0.036,-0.002,-0.013,-2.4,110.33,0
912564.0,-0.009,0.018,0.013,47.44,35.74,0
912569.0,0.003,0.008,0.011,35.98,-13.43,0
912574.0,-0.021,0.022,0.015,40.24,54.1,0
912579.0,-0.024,-0.028,-0.02,-41.7,130.67,0
912584.0,0.012,-0.018,0.011,-48.62,-48.6,0
912589.0,-0.007,0.003,-0.016,10.55,155.82,0
912594.0,0.031,0.013,0.013,20.63,-67.3,0
912599.0,-0.019,-0.028,-0.025,-41.5,143.02,0
912604.0,0.0,0.001,0.039,1.16,-0.23,0
912609.0,-0.021,-0.011,-0.044,-12.78,154.27,0
912614.0,0.015,-0.002,-0.016,-4.28,-137.12,0
912619.0,0.043,0.013,0.006,16.3,-82.23,0
912624.0,0.012,0.01,-0.016,27.66,-142.21,0
912629.0,0.007,-0.016,0.015,-42.97,-25.37,0
912634.0,-0.009,-0.021,0.013,-52.15,35.74,0
912639.0,0.017,0.013,-0.006,35.39,-109.73,0
912644.0,0.003,0.01,0.023,24.46,-6.43,0
912649.0,-0.043,-0.016,0.004,-20.33,85.33,0
912654.0,0.01,0.01,-0.016,29.38,-148.1,0
912659.0,-0.041,-0.002,-0.004,-2.25,95.17,0
912664.0,0.015,-0.014,0.001,-42.96,-85.6,0
912669.0,-0.009,0.001,-0.023,1.85,157.58,0
912674.0,0.012,0.032,0.011,63.13,-48.6,0
912679.0,-0.021,0.003,0.001,8.48,87.01,0
912684.0,-0.024,0.001,0.013,1.68,61.18,0
912689.0,-0.026,-0.009,0.011,-17.25,67.78,0
912694.0,-0.031,0.02,-0.018,29.11,120.22,0
912699.0,-0.026,0.027,0.02,39.34,52.25,0
912704.0,0.01,-0.016,0.001,-58.45,-83.46,0
912709.0,0.026,0.006,0.015,10.32,-59.7,0
912714.0,0.005,0.018,0.008,61.18,-30.8,0
912719.0,0.005,0.027,-0.006,73.91,-140.8,0
912724.0,-0.021,-0.006,0.015,-13.59,54.1,0
912729.0,0.005,0.008,-0.023,18.87,-167.77,0
912734.0,-0.021,-0.014,0.013,-28.42,58.54,0
912739.0,-0.002,-0.009,-0.004,-63.91,148.67,0
912744.0,0.003,-0.014,0.004,-72.26,-36.04,0
912749.0,-0.024,0.003,-0.011,6.96,114.53,0
912754.0,-0.021,-0.018,0.015,-34.81,54.1,0
912759.0,-0.012,0.006,-0.004,24.31,107.27,0
912764.0,-0.029,0.001,-0.004,1.59,97.32,0
912769.0,-0.002,0.015,0.001,80.64,63.45,0
912774.0,0.01,0.001,0.025,1.7,-21.23,0
912779.0,0.01,-0.006,-0.013,-21.22,-143.69,0
912784.0,0.031,-0.004,-0.025,-5.67,-128.87,0
912789.0,0.01,0.013,0.02,29.59,-25.66,0
912794.0,-0.002,-0.018,0.025,-36.11,5.1,0
912799.0,-0.012,0.01,0.018,25.84,33.45,0
912804.0,-0.007,0.02,0.001,70.38,80.96,0
912809.0,0.007,-0.021,0.027,-36.14,-14.97,0
912814.0,-0.005,-0.004,-0.013,-15.87,160.74,0
912819.0,-0.017,-0.006,-0.037,-8.91,155.95,0
912824.0,-0.014,-0.004,-0.023,-8.44,148.1,0
912829.0,-0.012,0.003,-0.004,14.47,107.27,0
912834.0,-0.005,0.01,-0.001,65.16,105.43,0
912839.0,0.017,0.015,-0.004,41.21,-102.24,0
912844.0,0.017,0.01,0.001,31.46,-86.22,0
912849.0,0.0,-0.021,-0.032,-32.63,-179.72,0
912854.0,-0.014,0.027,0.006,60.45,67.43,0
912859.0,-0.002,0.02,-0.008,66.32,165.2,0
912864.0,0.022,-0.006,0.015,-13.47,-54.5,0
912869.0,0.007,0.01,0.023,23.53,-17.95,0
912874.0,-0.005,0.022,-0.02,46.85,167.24,0
912879.0,0.003,-0.016,0.027,-30.07,-5.31,0
912884.0,-0.005,0.013,0.035,20.07,7.61,0
912889.0,-0.017,-0.026,0.004,-56.4,78.06,0
912894.0,0.012,-0.006,-0.013,-19.57,-137.52,0
912899.0,0.003,0.003,-0.011,15.98,-166.76,0
912904.0,-0.021,0.013,0.004,30.5,80.68,0
912909.0,-0.026,-0.006,0.03,-9.14,41.25,0
912914.0,0.0,0.003,-0.006,27.75,-178.49,0
912919.0,-0.005,-0.011,-0.001,-66.74,105.43,0
912924.0,0.0,0.032,0.001,87.98,-8.13,0
912929.0,0.012,-0.016,0.015,-39.06,-38.08,0
912934.0,-0.029,0.025,0.032,29.87,41.55,0
912939.0,-0.009,-0.035,0.013,-65.34,35.74,0
912944.0,-0.017,0.02,-0.013,43.21,128.59,0
912949.0,-0.017,0.015,-0.023,28.25,143.97,0
912954.0,-0.017,0.008,0.006,24.37,70.42,0
912959.0,0.005,-0.014,0.013,-44.12,-20.71,0
912964.0,-0.012,0.027,-0.006,63.93,117.18,0
912969.0,0.005,0.022,-0.032,34.28,-171.32,0
912974.0,0.007,-0.023,-0.016,-53.25,-154.86,0
912979.0,-0.009,-0.002,0.023,-3.72,22.56,0
912984.0,-0.002,-0.014,-0.023,-30.61,174.41,0
912989.0,-0.002,-0.009,-0.03,-16.26,175.74,0
912994.0,-0.007,0.022,0.032,34.11,12.29,0
912999.0,-0.014,-0.006,-0.006,-22.46,113.12,0
913004.0,-0.031,0.01,-0.03,13.53,134.1,0
913009.0,-0.005,0.006,-0.023,13.49,168.54,0
913014.0,0.003,0.015,0.004,74.02,-36.04,0
913019.0,-0.017,0.003,0.025,6.06,33.52,0
913024.0,0.003,0.022,-0.016,54.65,-170.73,0
913029.0,0.003,0.027,0.001,84.14,-66.38,0
913034.0,-0.026,-0.006,-0.087,-4.0,163.34,0
913039.0,-0.014,0.008,-0.011,24.06,127.38,0
913044.0,-0.014,-0.018,-0.02,-36.41,145.19,0
913049.0,0.019,-0.004,0.035,-5.75,-29.14,0
913054.0,-0.024,-0.002,-0.037,-2.07,147.4,0
913059.0,0.015,-0.028,-0.004,-61.79,-104.19,0
913064.0,-0.005,0.001,0.044,1.03,5.98,0
913069.0,-0.007,-0.004,-0.001,-29.2,100.31,0
913074.0,0.015,-0.009,0.023,-18.06,-32.65,0
913079.0,-0.002,-0.006,-0.018,-19.36,172.94,0
913084.0,-0.017,-0.009,-0.032,-13.56,152.87,0
913089.0,-0.017,-0.021,-0.023,-36.32,143.97,0
913094.0,0.005,0.02,-0.013,54.67,-159.52,0
913099.0,-0.014,0.01,-0.044,12.55,162.25,0
913104.0,-0.007,0.006,-0.013,20.43,152.07,0
913109.0,0.003,-0.011,0.013,-39.96,-11.04,0
913114.0,0.005,0.013,0.018,34.55,-15.47,0
913119.0,0.012,0.034,-0.066,27.11,-169.57,0
913124.0,-0.014,0.015,-0.016,35.66,137.76,0
913129.0,0.024,0.006,-0.02,10.03,-130.29,0
913134.0,0.0,0.006,-0.008,33.43,-178.92,0
913139.0,0.005,-0.002,0.023,-3.94,-12.32,0
913144.0,0.007,-0.004,-0.006,-22.73,-129.56,0
913149.0,-0.041,-0.018,0.013,-23.31,72.11,0
913154.0,0.034,0.006,-0.035,6.58,-135.94,0
913159.0,-0.007,0.013,0.037,18.72,10.74,0
913164.0,0.003,0.015,0.032,25.12,-4.53,0
913169.0,0.012,-0.018,-0.047,-20.8,-165.46,0
913174.0,-0.009,0.034,-0.03,47.49,162.58,0
913179.0,-0.019,0.008,-0.013,19.02,124.9,0
913184.0,0.029,-0.033,0.015,-44.95,-61.81,0
913189.0,-0.017,-0.047,-0.001,-70.53,94.4,0
913194.0,0.01,0.015,-0.013,42.68,-143.69,0
913199.0,-0.007,0.032,0.027,48.41,14.35,0
913204.0,0.012,-0.009,0.025,-17.5,-25.83,0
913209.0,0.007,-0.009,0.011,-34.09,-34.47,0
913214.0,-0.036,0.013,-0.011,18.87,106.89,0
913219.0,0.01,0.025,-0.016,53.32,-148.1,0
913224.0,-0.021,0.013,0.001,30.8,87.01,0
913229.0,-0.012,-0.023,-0.025,-39.73,154.9,0
913234.0,-0.012,0.03,-0.068,23.07,170.19,0
913239.0,-0.024,-0.011,0.023,-18.78,46.38,0
913244.0,-0.007,-0.002,0.032,-2.77,12.29,0
913249.0,0.003,0.013,0.018,35.27,-8.13,0
913254.0,-0.007,-0.004,0.037,-6.04,10.74,0
913259.0,0.005,-0.009,0.013,-32.11,-20.71,0
913264.0,-0.014,0.013,-0.006,39.58,113.12,0
913269.0,0.01,0.003,0.001,18.04,-83.46,0
913274.0,-0.029,-0.026,-0.044,-25.82,147.22,0
913279.0,-0.012,-0.002,0.039,-2.22,16.68,0
913284.0,-0.005,0.01,0.011,41.68,23.41,0
913289.0,-0.012,0.02,0.001,59.26,84.6,0
913294.0,-0.014,-0.011,-0.008,-34.05,120.78,0
913299.0,0.022,-0.002,0.004,-4.15,-80.81,0
913304.0,0.007,0.027,0.008,67.79,-41.5,0
913309.0,-0.012,-0.011,0.001,-43.28,84.6,0
913314.0,0.026,-0.016,-0.035,-20.05,-142.71,0
913319.0,-0.007,0.003,0.023,7.66,17.22,0
913324.0,0.0,0.013,-0.018,35.3,-179.49,0
913329.0,0.015,0.013,0.047,14.66,-17.31,0
913334.0,0.029,-0.002,0.027,-2.29,-46.46,0
913339.0,-0.036,0.008,-0.035,9.09,134.22,0
913344.0,-0.009,-0.006,-0.013,-21.44,144.59,0
913349.0,0.01,0.001,-0.018,2.23,-151.64,0
913354.0,-0.014,0.001,0.008,2.78,59.71,0
913359.0,-0.019,-0.016,0.011,-36.21,60.62,0
913364.0,-0.033,-0.014,0.011,-21.17,72.23,0
913369.0,0.003,-0.014,-0.018,-36.68,-171.94,0
913374.0,-0.017,0.03,-0.032,39.04,152.87,0
913379.0,0.012,0.034,-0.035,42.96,-160.78,0
913384.0,-0.007,0.018,0.018,42.43,21.45,0
913389.0,0.012,-0.011,0.004,-41.5,-73.86,0
913394.0,-0.005,0.003,0.008,18.57,29.15,0
913399.0,0.005,0.01,0.013,36.56,-20.71,0
913404.0,-0.014,0.018,-0.011,44.48,127.38,0
913409.0,0.007,0.018,0.03,29.74,-13.82,0
913414.0,0.01,0.018,0.008,53.92,-49.56,0
913419.0,-0.024,-0.014,-0.025,-21.37,136.68,0
913424.0,0.01,-0.021,-0.001,-64.67,-97.48,0
913429.0,-0.007,-0.004,-0.052,-4.39,172.24,0
913434.0,0.003,-0.028,-0.03,-42.84,-175.14,0
913439.0,0.007,-0.004,-0.025,-8.64,-163.77,0
913444.0,-0.029,0.022,-0.013,35.36,114.88,0
913449.0,-0.005,0.013,0.011,47.62,23.41,0
913454.0,-0.012,0.01,-0.052,11.1,167.1,0
913459.0,0.0,0.01,-0.016,33.55,-179.42,0
913464.0,-0.012,0.018,-0.016,41.85,142.95,0
913469.0,-0.009,-0.035,0.008,-70.33,48.61,0
913474.0,-0.007,0.027,0.001,75.31,80.96,0
913479.0,-0.019,-0.004,0.03,-6.44,32.47,0
913484.0,-0.007,-0.021,0.004,-69.27,63.44,0
913489.0,-0.045,-0.006,0.011,-7.81,76.73,0
913494.0,0.012,0.006,-0.013,17.28,-137.52,0
913499.0,0.005,0.01,0.02,26.44,-13.72,0
913504.0,0.017,-0.018,-0.008,-44.14,-116.57,0
913509.0,0.007,0.003,-0.016,10.47,-154.86,0
913514.0,-0.002,0.01,-0.018,29.72,172.94,0
913519.0,-0.002,0.003,-0.025,7.19,174.94,0
913524.0,0.0,-0.006,0.02,-17.48,-0.45,0
913529.0,0.007,0.001,-0.018,2.35,-157.85,0
913534.0,-0.031,0.006,-0.016,9.15,116.8,0
913539.0,0.024,0.018,0.008,34.56,-71.0,0
913544.0,-0.048,0.008,-0.02,8.74,113.18,0
913549.0,0.015,-0.002,0.066,-1.36,-12.46,0
913554.0,0.005,0.022,0.047,25.49,-6.06,0
913559.0,0.007,0.027,-0.008,67.57,-139.05,0
913564.0,-0.012,-0.009,0.004,-35.47,73.45,0
913569.0,0.007,0.018,0.027,31.71,-14.97,0
913574.0,0.036,0.003,0.035,3.65,-46.16,0
913579.0,-0.019,0.018,0.001,42.7,86.64,0
913584.0,0.003,-0.004,-0.073,-3.12,-178.0,0
913589.0,-0.017,0.015,-0.03,23.85,151.05,0
913594.0,-0.009,0.018,0.008,54.44,48.61,0
913599.0,-0.002,0.015,0.008,60.46,15.07,0
913604.0,0.005,0.006,0.008,30.04,-30.8,0
913609.0,0.005,0.008,-0.001,57.37,-104.48,0
913614.0,0.012,-0.011,0.011,-34.64,-48.6,0
913619.0,-0.005,0.001,0.018,2.48,14.52,0
913624.0,-0.014,-0.004,-0.008,-13.57,120.78,0
913629.0,-0.024,-0.03,0.037,-34.57,32.71,0
913634.0,0.0,-0.009,0.023,-21.17,-0.4,0
913639.0,0.019,-0.002,0.006,-4.52,-73.0,0
913644.0,-0.029,-0.023,-0.037,-26.27,142.47,0
913649.0,0.034,-0.033,-0.001,-44.15,-92.17,0
913654.0,-0.014,-0.026,0.023,-43.67,32.08,0
913659.0,0.0,0.018,0.006,71.4,-1.55,0
913664.0,0.012,-0.014,0.011,-40.0,-48.6,0
913669.0,0.012,0.006,-0.001,24.61,-96.01,0
913674.0,-0.019,-0.049,0.008,-67.27,66.4,0
913679.0,-0.045,-0.026,0.013,-28.43,73.9,0
913684.0,0.019,-0.002,0.015,-3.69,-51.28,0
913689.0,0.017,-0.002,-0.03,-2.65,-150.59,0
913694.0,-0.021,0.018,-0.049,18.13,156.49,0
913699.0,-0.007,0.027,-0.011,64.52,147.1,0
913704.0,0.005,0.013,0.018,34.55,-15.47,0
913709.0,-0.05,0.008,0.011,8.85,77.96,0
913714.0,0.031,0.013,-0.001,22.19,-92.34,0
913719.0,-0.024,0.018,0.018,30.55,53.07,0
913724.0,-0.029,-0.035,0.049,-31.76,30.25,0
913729.0,0.0,0.01,0.015,33.83,-0.59,0
913734.0,-0.045,-0.002,-0.025,-1.76,119.09,0
913739.0,0.022,0.006,0.006,13.95,-74.78,0
913744.0,-0.024,-0.004,0.027,-6.27,40.9,0
913749.0,-0.009,-0.018,-0.032,-28.54,163.79,0
913754.0,-0.009,-0.004,-0.006,-19.61,122.79,0
913759.0,0.029,-0.016,0.032,-20.24,-41.86,0
913764.0,-0.005,0.003,-0.006,22.7,142.66,0
913769.0,-0.024,-0.011,0.015,-21.49,56.94,0
913774.0,0.038,-0.004,0.02,-5.24,-62.21,0
913779.0,-0.029,0.003,0.025,4.8,48.75,0
913784.0,0.007,0.008,-0.032,13.51,-167.23,0
913789.0,-0.007,-0.002,0.027,-3.22,14.35,0
913794.0,0.031,0.006,0.039,6.33,-38.43,0
913799.0,0.031,0.018,-0.03,22.05,-133.81,0
913804.0,-0.012,0.008,-0.006,31.01,117.18,0
913809.0,0.031,0.034,0.032,37.38,-44.14,0
913814.0,-0.009,-0.009,0.006,-38.3,57.91,0
913819.0,0.012,0.032,-0.03,44.6,-157.99,0
913824.0,0.003,0.018,0.023,37.59,-6.43,0
913829.0,-0.043,0.006,-0.006,7.34,98.04,0
913834.0,0.01,0.01,-0.032,17.05,-163.28,0
913839.0,-0.024,0.015,-0.008,30.99,109.58,0
913844.0,0.005,0.003,0.023,7.84,-12.32,0
913849.0,-0.009,-0.018,0.025,-34.44,20.6,0
913854.0,-0.009,-0.002,0.02,-4.08,24.92,0
913859.0,0.003,0.013,0.015,39.14,-9.37,0
913864.0,-0.026,0.003,-0.037,4.02,144.86,0
913869.0,0.0,-0.004,0.004,-48.63,-2.6,0
913874.0,0.024,0.018,0.008,34.56,-71.0,0
913879.0,-0.041,0.018,-0.001,23.41,91.81,0
913884.0,0.019,0.034,0.004,60.23,-79.7,0
913889.0,-0.021,-0.009,0.02,-16.59,46.54,0
913894.0,0.007,0.006,0.018,16.12,-22.33,0
913899.0,0.01,0.02,0.013,50.73,-36.65,0
913904.0,0.0,-0.009,-0.016,-29.3,-179.42,0
913909.0,0.003,0.022,-0.037,30.94,-176.07,0
913914.0,0.0,-0.026,0.013,-62.86,-0.7,0
913919.0,-0.002,-0.011,-0.011,-45.23,168.37,0
913924.0,-0.002,0.018,-0.001,81.66,119.76,0
913929.0,0.005,-0.006,0.011,-28.45,-24.83,0
913934.0,0.017,0.022,0.008,49.86,-63.87,0
913939.0,-0.007,0.02,0.004,68.52,63.44,0
913944.0,-0.033,0.001,-0.006,1.35,100.31,0
913949.0,0.003,0.022,-0.008,68.42,-163.2,0
913954.0,-0.021,0.003,-0.03,4.95,144.52,0
913959.0,-0.014,-0.002,-0.004,-6.21,104.49,0
913964.0,0.007,-0.002,-0.018,-4.69,-157.85,0
913969.0,-0.026,-0.047,0.015,-57.14,59.4,0
913974.0,-0.029,0.013,0.004,23.92,83.0,0
913979.0,-0.036,-0.004,0.032,-4.74,47.96,0
913984.0,-0.009,-0.002,0.018,-4.52,27.78,0
913989.0,-0.019,-0.033,0.006,-58.7,72.73,0
913994.0,-0.014,-0.009,-0.006,-29.61,113.12,0
913999.0,-0.012,-0.002,0.006,-6.89,63.44,0
914004.0,-0.033,-0.006,0.008,-10.52,76.03,0
914009.0,0.005,0.01,0.03,18.93,-9.41,0
914014.0,0.024,-0.004,0.008,-8.9,-71.0,0
914019.0,-0.012,-0.009,-0.004,-35.36,107.27,0
914024.0,0.0,0.006,0.027,11.5,-0.33,0
914029.0,-0.017,0.02,-0.013,43.21,128.59,0
914034.0,0.015,0.02,-0.011,47.73,-126.77,0
914039.0,0.019,0.006,0.027,9.45,-35.13,0
914044.0,-0.031,0.022,-0.006,35.31,101.08,0
914049.0,0.022,0.015,-0.001,34.89,-93.37,0
914054.0,0.005,0.02,-0.001,75.63,-104.48,0
914059.0,0.0,0.025,-0.011,66.31,-179.16,0
914064.0,0.026,-0.006,0.001,-13.54,-87.59,0
914069.0,-0.009,-0.026,-0.013,-57.52,144.59,0
914074.0,0.0,0.02,-0.023,41.16,-179.6,0
914079.0,0.012,-0.011,-0.004,-41.4,-106.84,0
914084.0,-0.014,-0.023,-0.016,-47.6,137.76,0
914089.0,0.015,0.01,-0.011,29.78,-126.77,0
914094.0,0.01,-0.018,0.004,-60.58,-70.17,0
914099.0,0.0,0.006,0.032,9.83,-0.28,0
914104.0,-0.017,0.008,-0.001,25.61,94.4,0
914109.0,-0.009,0.006,0.015,17.13,31.31,0
914114.0,-0.005,-0.002,-0.018,-4.9,165.61,0
914119.0,-0.041,-0.016,-0.025,-18.48,121.88,0
914124.0,-0.009,-0.018,0.004,-61.3,69.56,0
914129.0,-0.041,0.008,0.011,10.78,75.22,0
914134.0,-0.014,0.034,0.032,44.25,23.78,0
914139.0,0.007,-0.016,-0.032,-25.66,-167.23,0
914144.0,-0.005,0.022,-0.032,34.32,171.87,0
914149.0,-0.019,0.018,-0.02,32.19,137.09,0
914154.0,0.05,0.018,-0.03,16.66,-120.75,0
914159.0,0.003,0.018,0.03,30.37,-4.89,0
914164.0,0.007,-0.009,0.032,-14.87,-12.83,0
914169.0,-0.014,0.015,0.032,23.29,23.78,0
914174.0,-0.002,0.027,-0.016,59.79,171.87,0
914179.0,0.0,-0.026,-0.035,-36.28,-179.74,0
914184.0,0.024,0.008,-0.02,14.18,-130.29,0
914189.0,0.019,-0.016,-0.02,-29.58,-136.61,0
914194.0,0.015,0.01,0.015,26.05,-43.17,0
914199.0,-0.014,-0.016,0.001,-48.24,85.51,0
914204.0,-0.012,0.01,-0.028,19.06,156.84,0
914209.0,-0.002,-0.016,0.023,-35.02,5.63,0
914214.0,-0.009,-0.002,-0.008,-7.19,131.94,0
914219.0,-0.009,-0.002,0.006,-8.17,57.91,0
914224.0,-0.005,-0.016,0.011,-53.87,23.41,0
914229.0,-0.045,-0.002,0.018,-1.88,68.48,0
914234.0,-0.012,0.039,-0.004,72.45,107.27,0
914239.0,-0.014,-0.018,-0.018,-38.64,141.78,0
914244.0,-0.005,0.006,0.006,36.67,38.09,0
914249.0,0.005,0.01,0.018,29.22,-15.47,0
914254.0,-0.012,0.02,-0.023,37.82,152.64,0
914259.0,-0.019,0.01,-0.023,19.26,140.23,0
914264.0,0.007,0.008,-0.001,46.96,-99.87,0
914269.0,-0.038,-0.016,0.035,-17.21,47.76,0
914274.0,-0.017,0.001,0.018,1.87,42.88,0
914279.0,-0.019,0.006,-0.049,6.05,158.88,0
914284.0,-0.024,-0.002,-0.016,-3.21,123.34,0
914289.0,-0.021,0.001,0.001,2.13,87.01,0
914294.0,0.003,-0.002,-0.028,-3.29,-174.72,0
914299.0,0.022,-0.033,0.023,-46.2,-43.76,0
914304.0,0.036,-0.002,0.042,-1.66,-40.78,0
914309.0,-0.012,0.003,0.006,13.59,63.44,0
914314.0,0.0,0.015,0.027,28.91,-0.33,0
914319.0,0.015,0.003,0.013,9.27,-47.98,0
914324.0,0.005,-0.006,-0.018,-18.85,-164.66,0
914329.0,-0.009,0.01,0.025,21.18,20.6,0
914334.0,-0.007,-0.038,-0.035,-46.58,168.59,0
914339.0,0.012,-0.011,0.004,-41.5,-73.86,0
914344.0,-0.024,0.025,0.011,43.49,65.79,0
914349.0,0.022,0.008,0.023,14.27,-43.76,0
914354.0,-0.031,-0.011,-0.018,-17.32,120.22,0
914359.0,0.003,0.022,0.006,73.94,-23.39,0
914364.0,-0.012,-0.011,-0.011,-34.86,132.58,0
914369.0,-0.038,0.003,-0.02,4.22,118.17,0
914374.0,-0.009,0.006,0.008,23.99,48.61,0
914379.0,-0.043,0.003,0.02,3.85,64.73,0
914384.0,0.003,-0.026,0.042,-31.36,-3.49,0
914389.0,-0.029,-0.014,0.049,-13.45,30.25,0
914394.0,-0.024,-0.009,-0.02,-15.64,130.67,0
914399.0,0.007,0.008,-0.028,15.61,-165.11,0
914404.0,0.015,-0.016,0.013,-39.23,-47.98,0
914409.0,0.019,0.02,0.035,26.71,-29.14,0
914414.0,0.0,-0.004,-0.018,-12.47,-179.49,0
914419.0,-0.002,0.015,-0.032,25.03,176.05,0
914424.0,0.007,0.01,0.004,51.89,-64.45,0
914429.0,0.012,-0.018,0.001,-56.43,-84.74,0
914434.0,0.005,0.025,-0.013,60.25,-159.52,0
914439.0,0.012,0.027,0.008,61.56,-55.62,0
914444.0,0.012,-0.016,0.025,-29.83,-25.83,0
914449.0,-0.014,0.02,0.008,50.49,59.71,0
914454.0,-0.029,0.001,0.006,1.57,78.32,0
914459.0,0.0,0.018,-0.023,37.57,-179.6,0
914464.0,-0.002,0.03,-0.008,73.49,165.2,0
914469.0,-0.012,0.015,0.006,48.95,63.44,0
914474.0,-0.009,0.027,-0.011,62.09,139.06,0
914479.0,0.003,0.003,0.035,5.25,-4.22,0
914484.0,-0.007,0.018,0.001,67.95,80.96,0
914489.0,-0.009,-0.016,-0.032,-25.31,163.79,0
914494.0,0.012,-0.002,-0.016,-4.61,-142.21,0
914499.0,-0.017,-0.002,0.004,-5.37,78.06,0
914504.0,-0.012,0.01,-0.016,27.89,142.95,0
914509.0,-0.024,0.008,0.008,17.58,70.76,0
914514.0,-0.033,-0.016,-0.025,-20.89,127.09,0
914519.0,0.003,-0.002,0.006,-13.93,-23.39,0
914524.0,-0.014,-0.004,-0.001,-15.63,95.14,0
914529.0,0.007,-0.006,0.006,-34.12,-51.19,0
914534.0,-0.002,-0.028,0.004,-81.53,32.48,0
914539.0,-0.007,0.013,0.018,33.62,21.45,0
914544.0,-0.005,0.006,0.02,15.04,12.86,0
914549.0,-0.007,0.006,-0.03,10.27,166.83,0
914554.0,-0.021,-0.014,-0.016,-27.11,126.18,0
914559.0,0.003,0.006,0.011,26.94,-13.43,0
914564.0,-0.005,-0.002,-0.037,-2.44,172.91,0
914569.0,0.0,0.022,-0.006,74.81,-178.49,0
914574.0,0.005,0.003,-0.013,12.72,-159.52,0
914579.0,0.015,0.046,0.004,72.11,-76.41,0
914584.0,-0.007,-0.006,-0.032,-10.9,167.77,0
914589.0,0.024,0.008,-0.025,12.89,-136.3,0
914594.0,-0.017,-0.009,0.03,-14.42,29.08,0
914599.0,-0.014,0.006,0.071,4.44,11.38,0
914604.0,-0.024,0.015,0.015,28.12,56.94,0
914609.0,0.01,0.01,-0.008,38.81,-130.99,0
914614.0,0.003,0.013,0.011,49.27,-13.43,0
914619.0,0.005,0.018,0.008,61.18,-30.8,0
914624.0,-0.033,0.006,-0.008,9.22,104.23,0
914629.0,0.005,-0.014,-0.004,-65.57,-126.58,0
914634.0,-0.026,-0.006,0.008,-13.09,72.41,0
914639.0,0.01,-0.021,0.008,-58.34,-49.56,0
914644.0,-0.002,-0.002,0.027,-3.32,4.65,0
914649.0,0.0,0.039,-0.035,48.34,-179.74,0
914654.0,-0.009,0.003,-0.028,6.24,161.17,0
914659.0,-0.007,0.015,-0.03,26.2,166.83,0
914664.0,0.015,-0.006,0.008,-20.89,-60.26,0
914669.0,0.003,0.001,0.025,1.81,-5.82,0
914674.0,0.007,0.01,0.011,38.65,-34.47,0
914679.0,-0.005,0.015,-0.03,26.54,171.23,0
914684.0,-0.005,-0.006,-0.023,-15.33,168.54,0
914689.0,0.003,-0.038,-0.011,-73.44,-166.76,0
914694.0,-0.024,-0.014,0.004,-29.44,81.6,0
914699.0,0.01,0.01,-0.025,21.0,-158.89,0
914704.0,0.017,0.027,0.02,45.78,-39.85,0
914709.0,0.003,-0.018,-0.016,-49.19,-170.73,0
914714.0,-0.019,0.015,-0.02,28.53,137.09,0
914719.0,-0.017,0.013,-0.068,10.29,166.34,0
914724.0,0.007,-0.026,-0.001,-73.73,-99.87,0
914729.0,-0.012,-0.021,0.013,-49.65,42.07,0
914734.0,-0.002,-0.021,0.027,-36.99,4.65,0
914739.0,0.0,0.022,-0.008,69.26,-178.92,0
914744.0,-0.009,0.008,-0.001,40.02,97.73,0
914749.0,-0.005,-0.021,-0.032,-32.37,171.87,0
914754.0,-0.019,-0.006,0.035,-9.18,28.74,0
914759.0,-0.012,-0.006,0.006,-25.8,63.44,0
914764.0,-0.007,0.032,0.035,42.09,11.46,0
914769.0,0.007,-0.035,-0.028,-50.86,-165.11,0
914774.0,-0.005,0.008,-0.03,14.73,171.23,0
914779.0,0.0,-0.002,0.006,-15.12,-1.55,0
914784.0,-0.012,0.01,0.023,22.09,27.53,0
914789.0,-0.005,0.008,0.044,10.18,5.98,0
914794.0,0.029,0.01,0.018,16.98,-58.25,0
914799.0,-0.009,0.015,-0.054,15.48,170.1,0
914804.0,0.003,-0.009,0.039,-12.53,-3.71,0
914809.0,-0.024,-0.023,-0.001,-44.18,93.08,0
914814.0,0.017,-0.026,0.001,-56.42,-86.22,0
914819.0,-0.002,0.003,0.015,11.53,8.21,0
914824.0,0.01,0.003,-0.011,12.35,-138.11,0
914829.0,-0.005,0.006,-0.023,13.49,168.54,0
914834.0,-0.009,-0.023,-0.016,-51.73,148.95,0
914839.0,-0.005,-0.016,0.023,-34.61,11.54,0
914844.0,-0.009,-0.026,0.056,-24.15,9.52,0
914849.0,0.0,-0.006,-0.001,-78.6,-172.88,0
914854.0,-0.002,-0.011,-0.001,-77.03,119.76,0
914859.0,-0.017,0.01,-0.047,11.81,160.46,0
914864.0,0.005,0.008,-0.008,39.16,-149.68,0
914869.0,-0.012,-0.006,0.018,-16.59,33.45,0
914874.0,0.007,0.008,0.023,18.52,-17.95,0
914879.0,-0.002,0.003,-0.008,20.04,165.2,0
914884.0,-0.007,-0.006,-0.025,-13.71,164.44,0
914889.0,-0.012,-0.018,-0.028,-31.43,156.84,0
914894.0,-0.017,0.02,0.011,45.3,57.21,0
914899.0,0.034,0.006,0.015,8.57,-65.31,0
914904.0,-0.031,-0.014,0.004,-23.53,83.53,0
914909.0,0.005,-0.009,0.006,-48.73,-39.96,0
914914.0,-0.021,0.022,0.027,32.71,37.92,0
914919.0,-0.005,0.003,-0.008,18.32,151.32,0
914924.0,0.026,0.001,-0.006,1.68,-102.9,0
914929.0,-0.009,0.02,0.023,39.11,22.56,0
914934.0,0.015,0.018,-0.011,44.08,-126.77,0
914939.0,-0.009,-0.023,-0.006,-64.17,122.79,0
914944.0,0.003,-0.004,-0.025,-8.95,-174.22,0
914949.0,0.005,-0.004,0.004,-33.33,-54.65,0
914954.0,-0.031,-0.004,0.008,-7.1,75.0,0
914959.0,0.01,-0.009,0.02,-21.32,-25.66,0
914964.0,-0.002,0.025,0.001,84.23,63.45,0
914969.0,0.017,0.008,-0.023,15.69,-143.45,0
914974.0,0.017,-0.021,-0.011,-45.91,-122.68,0
914979.0,-0.002,-0.021,0.011,-62.23,11.8,0
914984.0,0.015,0.015,0.027,26.02,-27.88,0
914989.0,-0.009,0.022,0.032,33.64,16.28,0
914994.0,0.017,-0.006,-0.028,-11.15,-148.5,0
914999.0,0.012,-0.009,-0.016,-23.92,-142.21,0
915004.0,0.0,0.02,-0.001,86.31,-172.88,0
915009.0,-0.005,-0.023,0.015,-55.08,16.65,0
915014.0,-0.009,-0.004,0.001,-22.82,83.24,0
915019.0,-0.009,0.006,-0.028,10.84,161.17,0
915024.0,0.015,-0.018,-0.035,-25.96,-157.34,0
915029.0,-0.009,-0.014,0.004,-53.47,69.56,0
915034.0,0.003,0.013,0.018,35.27,-8.13,0
915039.0,0.003,-0.006,0.011,-30.14,-13.43,0
915044.0,-0.012,-0.004,0.008,-15.45,54.91,0
915049.0,-0.007,-0.002,0.03,-2.98,13.24,0
915054.0,-0.002,-0.028,-0.025,-47.81,174.94,0
915059.0,-0.019,0.008,-0.013,19.02,124.9,0
915064.0,0.022,-0.004,0.018,-8.08,-50.53,0
915069.0,-0.009,-0.002,-0.013,-5.61,144.59,0
915074.0,0.0,-0.009,-0.016,-29.3,-179.42,0
915079.0,-0.002,0.006,-0.001,65.26,119.76,0
915084.0,-0.014,-0.016,-0.018,-34.81,141.78,0
915089.0,-0.021,0.003,0.004,8.38,80.68,0
915094.0,-0.012,-0.014,-0.006,-45.62,117.18,0
915099.0,0.012,0.022,0.013,51.39,-42.83,0
915104.0,0.024,0.027,0.035,32.74,-34.83,0
915109.0,-0.002,-0.026,-0.018,-54.56,172.94,0
915114.0,0.022,0.003,0.018,6.48,-50.53,0
915119.0,-0.009,0.006,0.004,29.07,69.56,0
915124.0,0.01,-0.004,0.015,-12.31,-32.17,0
915129.0,-0.005,-0.002,0.001,-18.53,76.44,0
915134.0,0.0,0.027,0.015,60.29,-0.59,0
915139.0,-0.031,0.018,-0.044,17.98,145.09,0
915144.0,0.003,-0.004,0.004,-42.59,-36.04,0
915149.0,-0.021,-0.021,-0.016,-38.06,126.18,0
915154.0,-0.017,-0.004,0.023,-8.08,36.22,0
915159.0,0.005,-0.028,-0.001,-79.63,-104.48,0
915164.0,0.003,0.008,0.044,10.22,-3.31,0
915169.0,0.015,-0.014,-0.028,-23.5,-152.26,0
915174.0,0.015,0.008,-0.028,14.35,-152.26,0
915179.0,0.01,0.02,-0.025,36.43,-158.89,0
915184.0,-0.005,-0.002,0.001,-18.53,76.44,0
915189.0,-0.009,-0.011,-0.008,-41.43,131.94,0
915194.0,-0.002,0.013,-0.023,29.11,174.41,0
915199.0,-0.014,0.01,-0.011,30.13,127.38,0
915204.0,-0.024,-0.04,-0.013,-55.7,119.12,0
915209.0,-0.002,-0.002,-0.037,-2.45,176.56,0
915214.0,0.003,0.025,0.032,37.41,-4.53,0
915219.0,0.003,0.018,-0.013,52.46,-169.09,0
915224.0,-0.009,0.001,-0.006,4.08,122.79,0
915229.0,-0.007,0.001,-0.03,1.48,166.83,0
915234.0,-0.014,0.034,-0.042,37.75,161.3,0
915239.0,0.003,-0.011,0.018,-31.75,-8.13,0
915244.0,-0.026,0.02,0.001,37.29,87.56,0
915249.0,0.0,0.01,0.03,19.17,-0.31,0
915254.0,-0.038,-0.035,0.001,-42.62,88.32,0
915259.0,-0.017,-0.006,-0.008,-18.92,117.01,0
915264.0,-0.007,0.006,-0.006,31.05,130.82,0
915269.0,0.015,-0.014,-0.028,-23.5,-152.26,0
915274.0,-0.002,0.015,0.037,22.23,3.45,0
915279.0,-0.007,-0.006,0.004,-39.12,63.44,0
915284.0,-0.021,0.006,-0.018,11.29,130.14,0
915289.0,0.024,-0.028,-0.004,-48.89,-98.66,0
915294.0,0.003,0.006,0.006,40.97,-23.39,0
915299.0,-0.019,0.034,-0.018,52.65,133.52,0
915304.0,0.01,-0.014,-0.03,-23.27,-162.02,0
915309.0,0.005,-0.023,0.013,-58.85,-20.71,0
915314.0,-0.005,-0.023,0.013,-59.04,19.48,0
915319.0,-0.007,0.032,-0.04,38.45,169.94,0
915324.0,0.015,0.006,0.042,7.19,-19.15,0
915329.0,0.017,-0.002,0.023,-3.23,-36.74,0
915334.0,0.0,0.018,0.03,30.47,-0.31,0
915339.0,-0.012,-0.002,-0.02,-3.87,149.97,0
915344.0,0.022,0.003,-0.006,8.06,-105.61,0
915349.0,-0.009,0.034,-0.018,59.34,152.43,0
915354.0,-0.009,0.001,-0.035,1.27,164.86,0
915359.0,0.012,-0.014,0.02,-29.87,-30.9,0
915364.0,-0.009,-0.016,0.03,-27.02,17.51,0
915369.0,0.005,-0.009,-0.013,-31.83,-159.52,0
915374.0,-0.009,0.013,0.018,32.29,27.78,0
915379.0,0.005,0.008,-0.02,20.79,-166.39,0
915384.0,0.007,-0.023,0.001,-72.21,-81.35,0
915389.0,-0.012,-0.016,0.011,-45.05,47.84,0
915394.0,-0.021,-0.004,0.039,-5.08,28.48,0
915399.0,0.012,-0.014,0.011,-40.0,-48.6,0
915404.0,-0.014,-0.002,-0.052,-1.71,164.6,0
915409.0,0.029,-0.016,-0.006,-28.4,-101.86,0
915414.0,0.015,0.001,0.032,1.29,-24.25,0
915419.0,-0.017,-0.009,-0.008,-25.23,117.01,0
915424.0,0.007,-0.011,-0.023,-24.98,-162.17,0
915429.0,0.007,0.003,0.004,21.42,-64.45,0
915434.0,-0.007,0.01,-0.001,55.47,100.31,0
915439.0,-0.012,-0.006,-0.011,-21.7,132.58,0
915444.0,0.003,0.001,-0.037,1.23,-176.07,0
915449.0,0.003,0.003,0.032,5.64,-4.53,0
915454.0,-0.007,0.013,-0.02,30.58,161.03,0
915459.0,-0.005,0.001,0.02,2.2,12.86,0
915464.0,-0.005,-0.021,-0.008,-65.07,151.32,0
915469.0,-0.007,-0.006,-0.001,-41.81,100.31,0
915474.0,-0.009,-0.023,0.027,-38.57,18.93,0
915479.0,-0.009,0.022,-0.02,44.81,155.25,0
915484.0,0.017,-0.002,-0.004,-5.27,-102.24,0
915489.0,0.007,0.018,-0.016,45.46,-154.86,0
915494.0,0.0,-0.03,-0.008,-74.41,-178.92,0
915499.0,-0.009,0.013,0.035,19.58,15.21,0
915504.0,0.005,0.027,-0.023,49.28,-167.77,0
915509.0,0.012,-0.006,0.023,-13.95,-28.16,0
915514.0,-0.007,0.006,-0.023,13.17,162.9,0
915519.0,0.01,-0.009,-0.025,-17.99,-158.89,0
915524.0,0.01,0.008,-0.004,37.49,-110.66,0
915529.0,0.012,0.006,-0.013,17.28,-137.52,0
915534.0,-0.024,0.003,-0.006,7.41,104.31,0
915539.0,0.005,0.008,0.042,10.73,-6.75,0
915544.0,0.0,0.025,-0.037,33.63,-179.75,0
915549.0,-0.017,-0.002,-0.006,-5.16,110.07,0
915554.0,-0.009,0.003,-0.013,11.11,144.59,0
915559.0,0.003,0.018,0.02,40.68,-7.18,0
915564.0,0.007,0.01,-0.016,30.98,-154.86,0
915569.0,0.012,0.001,-0.04,1.1,-162.96,0
915574.0,-0.005,0.02,0.035,29.73,7.61,0
915579.0,0.012,0.003,-0.018,8.36,-146.08,0
915584.0,-0.014,-0.009,-0.025,-16.87,150.61,0
915589.0,0.007,0.013,-0.008,48.74,-139.05,0
915594.0,-0.002,-0.049,-0.013,-74.81,170.43,0
915599.0,-0.012,0.006,-0.02,13.32,149.97,0
915604.0,0.012,-0.052,-0.025,-61.65,-154.31,0
915609.0,-0.038,-0.006,-0.001,-9.5,91.92,0
915614.0,0.012,0.003,0.018,8.41,-34.16,0
915619.0,-0.026,-0.026,0.004,-44.04,82.36,0
915624.0,-0.002,0.008,-0.008,42.37,165.2,0
915629.0,0.003,0.018,0.011,57.95,-13.43,0
915634.0,-0.031,0.008,0.018,12.58,60.0,0
915639.0,-0.005,-0.011,-0.044,-14.06,174.04,0
915644.0,0.024,0.02,0.006,38.8,-76.23,0
915649.0,-0.019,-0.016,-0.025,-26.82,143.02,0
915654.0,-0.031,0.015,-0.052,14.15,149.01,0
915659.0,0.007,0.034,0.018,60.62,-22.33,0
915664.0,0.003,-0.002,-0.02,-4.43,-172.88,0
915669.0,-0.014,0.018,0.02,35.35,35.02,0
915674.0,-0.012,0.013,-0.025,24.63,154.9,0
915679.0,0.01,-0.014,0.023,-28.81,-23.25,0
915684.0,-0.009,-0.021,0.023,-40.21,22.56,0
915689.0,0.015,-0.014,-0.013,-34.61,-132.37,0
915694.0,0.017,0.015,-0.028,25.09,-148.5,0
915699.0,-0.017,-0.004,0.004,-13.23,78.06,0
915704.0,-0.024,-0.002,-0.028,-2.51,139.26,0
915709.0,-0.009,0.001,-0.02,2.03,155.25,0
915714.0,-0.017,-0.026,0.018,-46.31,42.88,0
915719.0,-0.026,0.008,-0.02,13.51,127.97,0
915724.0,-0.009,0.003,0.018,8.98,27.78,0
915729.0,0.0,-0.014,-0.008,-58.05,-178.92,0
915734.0,-0.005,-0.004,0.015,-13.87,16.65,0
915739.0,0.019,0.041,-0.02,55.88,-136.61,0
915744.0,0.01,0.02,-0.001,63.79,-97.48,0
915749.0,0.017,0.03,0.027,42.48,-31.65,0
915754.0,-0.007,0.001,0.008,4.2,40.24,0
915759.0,0.003,0.034,-0.008,75.56,-163.2,0
915764.0,0.043,0.034,-0.001,38.41,-91.69,0
915769.0,-0.014,-0.002,-0.008,-5.51,120.78,0
915774.0,0.01,-0.026,0.004,-67.94,-70.17,0
915779.0,-0.014,0.001,-0.004,3.11,104.49,0
915784.0,-0.007,0.032,0.02,56.1,19.11,0
915789.0,0.005,0.006,-0.02,14.88,-166.39,0
915794.0,-0.017,-0.035,-0.006,-63.28,110.07,0
915799.0,-0.009,0.003,-0.023,7.37,157.58,0
915804.0,-0.021,-0.021,0.001,-44.09,87.01,0
915809.0,-0.002,0.01,0.018,29.94,7.13,0
915814.0,0.0,-0.03,0.02,-56.24,-0.45,0
915819.0,-0.002,-0.009,0.013,-33.47,9.69,0
915824.0,-0.017,-0.04,0.004,-66.96,78.06,0
915829.0,0.026,-0.026,-0.006,-43.21,-102.9,0
915834.0,-0.009,0.027,-0.011,62.09,139.06,0
915839.0,0.012,-0.006,-0.023,-13.87,-152.01,0
915844.0,-0.012,0.022,-0.085,14.58,172.1,0
915849.0,0.01,0.001,-0.004,4.39,-110.66,0
915854.0,0.01,-0.006,-0.006,-29.1,-121.93,0
915859.0,0.029,0.006,0.032,7.35,-41.86,0
915864.0,-0.007,0.001,-0.028,1.6,165.73,0
915869.0,0.0,0.008,0.008,43.88,-1.1,0
915874.0,0.019,0.008,0.011,19.88,-61.03,0
915879.0,-0.026,0.006,-0.018,9.97,124.57,0
915884.0,-0.009,0.008,-0.03,14.24,162.58,0
915889.0,-0.014,0.001,-0.011,2.56,127.38,0
915894.0,0.022,0.008,-0.001,20.15,-93.37,0
915899.0,0.017,-0.006,-0.018,-14.48,-136.83,0
915904.0,-0.024,-0.011,-0.02,-19.61,130.67,0
915909.0,0.024,0.001,0.008,1.79,-71.0,0
915914.0,0.0,-0.021,-0.004,-79.96,-177.51,0
915919.0,-0.009,0.01,0.008,39.58,48.61,0
915924.0,-0.026,-0.028,-0.008,-45.44,107.91,0
915929.0,-0.007,-0.011,0.047,-13.34,8.57,0
915934.0,0.003,-0.006,-0.023,-15.53,-173.62,0
915939.0,0.005,-0.023,-0.02,-47.75,-166.39,0
915944.0,0.012,-0.018,-0.011,-48.43,-131.82,0
915949.0,-0.019,0.018,-0.056,16.45,161.37,0
915954.0,0.012,0.008,0.023,17.25,-28.16,0
915959.0,-0.014,0.003,0.001,12.63,85.51,0
915964.0,-0.017,-0.009,0.02,-18.52,39.31,0
915969.0,-0.002,-0.002,0.023,-4.01,5.63,0
915974.0,0.007,0.01,-0.044,12.99,-170.6,0
915979.0,0.003,0.001,-0.006,6.91,-157.17,0
915984.0,0.0,-0.026,-0.032,-38.24,-179.72,0
915989.0,0.005,-0.006,0.023,-15.39,-12.32,0
915994.0,0.017,-0.016,-0.001,-43.25,-94.32,0
915999.0,-0.014,-0.009,-0.016,-22.56,137.76,0
916004.0,0.005,-0.052,0.013,-74.91,-20.71,0
916009.0,-0.002,0.006,0.008,33.02,15.07,0
916014.0,-0.009,0.015,-0.042,19.41,167.36,0
916019.0,0.005,-0.026,0.008,-69.28,-30.8,0
916024.0,-0.026,0.01,0.006,21.14,77.29,0
916029.0,0.01,-0.018,-0.032,-28.48,-163.28,0
916034.0,-0.017,0.008,-0.016,19.28,133.3,0
916039.0,-0.021,-0.018,0.011,-37.51,63.44,0
916044.0,-0.007,-0.049,0.006,-79.49,49.94,0
916049.0,0.005,-0.004,0.02,-10.83,-13.72,0
916054.0,0.003,-0.014,-0.004,-71.75,-145.18,0
916059.0,0.012,0.003,-0.008,12.18,-124.89,0
916064.0,-0.009,-0.016,-0.008,-51.58,131.94,0
916069.0,0.005,-0.009,-0.006,-48.28,-140.8,0
916074.0,-0.009,0.013,0.035,19.58,15.21,0
916079.0,-0.033,-0.038,0.006,-47.91,79.96,0
916084.0,-0.012,0.02,-0.025,35.62,154.9,0
916089.0,0.012,-0.009,-0.032,-14.24,-159.48,0
916094.0,0.007,0.006,-0.028,11.06,-165.11,0
916099.0,0.003,-0.004,0.006,-31.81,-23.39,0
916104.0,0.007,0.001,0.001,6.13,-81.35,0
916109.0,-0.007,0.006,-0.016,18.05,155.82,0
916114.0,0.01,-0.016,-0.006,-54.29,-121.93,0
916119.0,0.01,-0.028,0.008,-65.39,-49.56,0
916124.0,-0.019,-0.014,-0.054,-13.34,160.6,0
916129.0,-0.009,0.001,-0.016,2.5,148.95,0
916134.0,-0.014,0.015,-0.013,37.98,133.0,0
916139.0,-0.012,-0.014,0.025,-26.09,25.24,0
916144.0,0.007,-0.018,-0.008,-58.61,-139.05,0
916149.0,-0.014,-0.033,-0.028,-46.5,152.78,0
916154.0,-0.012,-0.03,-0.001,-68.61,96.18,0
916159.0,0.0,0.015,-0.011,54.4,-179.16,0
916164.0,0.003,-0.018,-0.004,-76.31,-145.18,0
916169.0,-0.007,-0.028,-0.035,-38.2,168.59,0
916174.0,-0.002,0.008,-0.037,12.09,176.56,0
916179.0,0.0,-0.03,-0.018,-59.26,-179.49,0
916184.0,0.01,0.008,0.015,23.58,-32.17,0
916189.0,-0.009,0.01,0.011,36.06,41.37,0
916194.0,-0.017,-0.009,0.03,-14.42,29.08,0
916199.0,0.015,0.01,0.004,34.77,-76.41,0
916204.0,-0.012,-0.004,-0.013,-12.67,138.28,0
916209.0,-0.017,0.02,-0.011,45.17,123.18,0
916214.0,-0.005,0.008,-0.028,15.91,170.48,0
916219.0,0.003,0.01,0.006,58.2,-23.39,0
916224.0,-0.005,0.01,0.03,18.96,8.82,0
916229.0,0.022,-0.006,-0.001,-16.36,-93.37,0
916234.0,0.003,0.003,-0.032,5.61,-175.49,0
916239.0,0.003,-0.014,-0.001,-78.11,-116.58,0
916244.0,0.012,0.01,-0.02,23.59,-149.3,0
916249.0,-0.009,-0.035,-0.013,-65.16,144.59,0
916254.0,0.007,-0.004,0.004,-26.12,-64.45,0
916259.0,-0.012,-0.023,-0.011,-55.27,132.58,0
916264.0,-0.009,-0.018,0.023,-36.79,22.56,0
916269.0,0.005,-0.009,-0.032,-14.99,-171.32,0
916274.0,-0.007,-0.018,-0.02,-40.35,161.03,0
916279.0,-0.019,-0.016,0.015,-33.08,50.82,0
916284.0,0.0,0.01,0.001,83.79,-8.13,0
916289.0,0.005,-0.002,-0.001,-17.34,-104.48,0
916294.0,0.0,0.01,0.02,27.1,-0.45,0
916299.0,0.034,0.006,-0.006,9.27,-100.21,0
916304.0,-0.014,-0.011,0.011,-32.14,53.03,0
916309.0,0.003,0.001,0.03,1.53,-4.89,0
916314.0,-0.017,-0.021,0.015,-42.43,47.0,0
916319.0,0.003,0.015,-0.049,17.12,-177.03,0
916324.0,-0.002,0.013,-0.03,22.99,175.74,0
916329.0,-0.005,0.013,0.018,34.66,14.52,0
916334.0,-0.009,0.025,0.004,67.89,69.56,0
916339.0,0.0,-0.006,-0.008,-37.04,-178.92,0
916344.0,-0.005,0.001,0.004,7.82,52.82,0
916349.0,-0.007,-0.021,0.035,-30.42,11.46,0
916354.0,-0.002,-0.006,0.042,-8.67,3.06,0
916359.0,-0.009,-0.033,-0.025,-50.55,159.52,0
916364.0,0.01,0.001,0.015,2.5,-32.17,0
916369.0,-0.031,0.013,0.015,20.25,63.44,0
916374.0,-0.017,-0.009,0.006,-26.48,70.42,0
916379.0,-0.002,-0.033,0.004,-82.75,32.48,0
916384.0,-0.024,-0.026,0.03,-33.79,38.55,0
916389.0,-0.007,0.013,-0.004,58.18,117.6,0
916394.0,0.0,0.001,-0.006,7.49,-178.49,0
916399.0,0.003,-0.028,-0.004,-80.9,-145.18,0
916404.0,0.029,-0.028,0.018,-39.43,-58.25,0
916409.0,-0.002,0.001,0.027,1.66,4.65,0
916414.0,0.01,0.006,0.032,9.42,-16.8,0
916419.0,0.024,0.008,0.001,18.3,-87.35,0
916424.0,-0.005,0.027,0.008,70.7,29.15,0
916429.0,0.01,0.006,-0.013,18.77,-143.69,0
916434.0,-0.007,0.018,-0.004,65.71,117.6,0
916439.0,0.007,0.001,-0.025,1.74,-163.77,0
916444.0,0.0,-0.011,-0.006,-61.49,-178.49,0
916449.0,-0.009,-0.028,-0.004,-70.11,111.3,0
916454.0,-0.014,0.015,-0.016,35.66,137.76,0
916459.0,0.012,0.03,0.02,51.34,-30.9,0
916464.0,0.012,-0.018,0.001,-56.43,-84.74,0
916469.0,-0.017,-0.054,-0.018,-65.69,137.38,0
916474.0,-0.021,0.013,-0.006,29.87,105.83,0
916479.0,0.015,0.013,0.027,22.35,-27.88,0
916484.0,0.01,-0.014,0.008,-46.68,-49.56,0
916489.0,0.019,0.008,-0.013,18.82,-124.45,0
916494.0,-0.007,0.032,0.011,68.16,33.29,0
916499.0,-0.017,-0.002,0.013,-4.32,51.75,0
916504.0,0.003,-0.03,-0.032,-43.02,-175.49,0
916509.0,0.012,-0.014,-0.023,-27.69,-152.01,0
916514.0,0.029,-0.009,-0.001,-16.89,-92.53,0
916519.0,-0.005,-0.009,0.004,-56.5,52.82,0
916524.0,-0.005,-0.002,-0.011,-7.7,156.91,0
916529.0,0.015,0.015,0.03,24.55,-25.95,0
916534.0,0.0,0.013,-0.004,73.94,-177.51,0
916539.0,-0.026,0.032,0.044,31.85,30.63,0
916544.0,-0.005,0.032,-0.008,73.19,151.32,0
916549.0,-0.017,0.018,0.018,35.74,42.88,0
916554.0,-0.002,0.027,-0.023,49.8,174.41,0
916559.0,-0.031,0.001,0.004,1.47,83.53,0
916564.0,0.007,0.02,0.004,67.81,-64.45,0
916569.0,-0.026,-0.011,0.011,-21.56,67.78,0
916574.0,0.0,-0.011,-0.018,-31.77,-179.49,0
916579.0,0.007,0.006,-0.023,13.12,-162.17,0
916584.0,0.005,-0.016,-0.059,-15.15,-175.18,0
916589.0,0.005,-0.026,0.025,-44.99,-11.17,0
916594.0,0.0,-0.002,0.035,-2.64,-0.26,0
916599.0,-0.017,0.013,0.023,24.44,36.22,0
916604.0,-0.021,0.013,-0.001,30.79,93.42,0
916609.0,0.024,-0.014,0.013,-26.32,-61.5,0
916614.0,-0.009,-0.016,0.004,-57.8,69.56,0
916619.0,-0.005,-0.018,0.011,-57.59,23.41,0
916624.0,0.024,-0.016,0.023,-25.75,-46.76,0
916629.0,-0.005,0.001,-0.004,7.69,128.42,0
916634.0,-0.017,0.015,0.018,31.86,42.88,0
916639.0,-0.009,0.003,-0.013,11.11,144.59,0
916644.0,0.003,0.022,0.025,41.58,-5.82,0
916649.0,0.0,0.034,0.056,31.42,-0.16,0
916654.0,0.005,0.022,-0.006,70.69,-140.8,0
916659.0,-0.005,0.018,0.015,47.38,16.65,0
916664.0,0.012,-0.006,0.004,-26.82,-73.86,0
916669.0,-0.009,0.006,0.018,15.46,27.78,0
916674.0,-0.014,0.018,0.008,46.86,59.71,0
916679.0,0.01,0.013,-0.016,34.72,-148.1,0
916684.0,-0.005,-0.002,0.032,-2.81,8.17,0
916689.0,-0.017,0.001,0.042,1.02,21.65,0
916694.0,0.01,-0.011,0.015,-31.42,-32.17,0
916699.0,-0.005,0.02,-0.016,50.73,163.52,0
916704.0,-0.029,0.008,0.008,15.02,73.8,0
916709.0,-0.005,0.018,-0.02,39.97,167.24,0
916714.0,0.01,0.013,0.018,32.1,-28.58,0
916719.0,-0.005,-0.006,0.006,-40.39,38.09,0
916724.0,-0.017,-0.004,0.008,-12.13,63.44,0
916729.0,0.003,0.01,0.004,67.29,-36.04,0
916734.0,-0.007,-0.018,-0.052,-19.43,172.24,0
916739.0,0.005,0.015,0.02,36.01,-13.72,0
916744.0,0.007,0.015,0.027,28.08,-14.97,0
916749.0,0.007,0.013,0.013,40.4,-29.29,0
916754.0,-0.007,-0.018,0.004,-66.84,63.44,0
916759.0,-0.014,0.003,0.008,10.98,59.71,0
916764.0,-0.021,0.001,-0.001,2.13,93.42,0
916769.0,-0.002,0.027,0.018,56.42,7.13,0
916774.0,-0.019,0.001,-0.059,0.74,162.08,0
916779.0,-0.007,0.008,-0.028,15.65,165.73,0
916784.0,-0.009,-0.006,-0.025,-13.34,159.52,0
916789.0,-0.021,0.022,0.032,30.01,33.56,0
916794.0,0.01,0.01,0.023,22.81,-23.25,0
916799.0,-0.024,0.008,0.004,18.37,81.6,0
916804.0,0.017,0.003,0.037,4.48,-24.56,0
916809.0,-0.026,0.003,-0.008,6.62,107.91,0
916814.0,0.01,-0.033,-0.071,-24.63,-172.16,0
916819.0,0.012,-0.002,-0.013,-5.08,-137.52,0
916824.0,-0.029,-0.004,-0.004,-7.89,97.32,0
916829.0,-0.005,0.025,0.027,41.63,9.57,0
916834.0,-0.002,-0.002,0.011,-8.31,11.8,0
916839.0,0.005,-0.033,0.025,-52.02,-11.17,0
916844.0,-0.024,0.008,0.006,18.04,76.06,0
916849.0,0.017,0.006,-0.025,10.42,-146.14,0
916854.0,-0.009,0.001,0.03,1.46,17.51,0
916859.0,0.005,-0.021,-0.013,-55.72,-159.52,0
916864.0,-0.017,0.015,0.049,16.34,18.71,0
916869.0,0.003,-0.004,-0.001,-54.41,-116.58,0
916874.0,-0.007,0.022,-0.016,52.5,155.82,0
916879.0,0.019,0.001,-0.006,2.26,-107.44,0
916884.0,0.019,-0.011,-0.013,-25.5,-124.45,0
916889.0,-0.002,0.003,-0.013,13.37,170.43,0
916894.0,0.01,0.003,-0.013,10.99,-143.69,0
916899.0,-0.012,0.022,-0.035,31.3,161.25,0
916904.0,-0.007,-0.033,0.039,-39.25,10.1,0
916909.0,0.003,-0.006,0.02,-17.35,-7.18,0
916914.0,-0.043,0.008,-0.016,9.91,110.02,0
916919.0,0.015,-0.009,0.011,-25.95,-53.64,0
916924.0,-0.017,-0.006,-0.006,-19.86,110.07,0
916929.0,-0.012,-0.002,0.011,-5.72,47.84,0
916934.0,0.0,0.003,-0.023,7.96,-179.6,0
916939.0,-0.005,0.006,0.039,8.01,6.7,0
916944.0,0.019,0.006,-0.03,8.9,-147.23,0
916949.0,-0.009,0.01,-0.008,39.34,131.94,0
916954.0,-0.002,0.044,-0.028,57.74,175.37,0
916959.0,-0.021,-0.009,0.027,-14.16,37.92,0
916964.0,0.0,0.013,0.013,44.29,-0.7,0
916969.0,0.003,0.027,-0.016,59.71,-170.73,0
916974.0,-0.012,0.02,-0.004,58.2,107.27,0
916979.0,-0.005,-0.026,0.004,-77.18,52.82,0
916984.0,-0.007,0.006,-0.013,20.43,152.07,0
916989.0,0.0,0.001,0.001,35.28,-8.13,0
916994.0,-0.009,0.001,-0.018,2.25,152.43,0
916999.0,0.022,-0.006,0.004,-16.19,-80.81,0
917004.0,-0.009,-0.03,0.006,-69.87,57.91,0
917009.0,0.029,0.001,-0.016,1.39,-118.43,0
917014.0,0.017,0.008,0.004,24.79,-78.28,0
917019.0,-0.012,-0.006,0.008,-23.86,54.91,0
917024.0,-0.009,-0.014,-0.013,-39.85,144.59,0
917029.0,-0.019,-0.006,-0.025,-11.43,143.02,0
917034.0,-0.014,-0.006,0.001,-24.13,85.51,0
917039.0,-0.005,-0.035,0.006,-77.94,38.09,0
917044.0,-0.002,0.02,0.006,72.44,20.73,0
917049.0,-0.031,-0.014,0.015,-21.4,63.44,0
917054.0,-0.017,-0.004,-0.023,-8.05,143.97,0
917059.0,0.017,-0.002,0.013,-4.27,-52.28,0
917064.0,-0.007,-0.018,-0.032,-28.97,167.77,0
917069.0,0.022,-0.004,0.011,-9.36,-63.77,0
917074.0,-0.041,0.008,-0.011,10.77,104.99,0
917079.0,0.019,0.01,0.03,16.27,-32.91,0
917084.0,0.005,0.006,-0.02,14.88,-166.39,0
917089.0,-0.029,0.006,-0.035,7.07,140.61,0
917094.0,-0.005,0.006,-0.013,21.71,160.74,0
917099.0,-0.007,0.02,0.011,57.33,33.29,0
917104.0,-0.041,-0.011,-0.032,-12.15,128.63,0
917109.0,0.012,0.001,0.015,2.32,-38.08,0
917114.0,-0.005,-0.009,0.004,-56.5,52.82,0
917119.0,-0.029,-0.035,0.006,-50.28,78.32,0
917124.0,-0.014,0.003,0.03,5.52,25.45,0
917129.0,-0.012,0.013,0.004,46.02,73.45,0
917134.0,0.007,-0.04,0.015,-66.76,-25.37,0
917139.0,-0.012,0.022,-0.001,62.0,96.18,0
917144.0,0.019,-0.033,-0.004,-59.0,-100.76,0
917149.0,-0.012,-0.026,-0.004,-64.16,107.27,0
917154.0,0.005,-0.002,0.008,-9.38,-30.8,0
917159.0,-0.033,0.022,-0.04,23.35,139.88,0
917164.0,-0.033,-0.011,-0.013,-17.29,111.66,0
917169.0,0.022,-0.006,-0.02,-12.09,-133.27,0
917174.0,0.003,0.025,0.027,41.9,-5.31,0
917179.0,0.01,-0.006,0.011,-23.82,-42.32,0
917184.0,0.026,0.022,-0.006,39.42,-102.9,0
917189.0,0.0,-0.014,-0.018,-36.95,-179.49,0
917194.0,0.003,-0.014,-0.03,-24.25,-175.14,0
917199.0,-0.024,-0.002,0.004,-3.8,81.6,0
917204.0,0.012,-0.011,-0.025,-21.76,-154.31,0
917209.0,-0.002,-0.002,0.032,-2.83,3.96,0
917214.0,-0.024,-0.006,0.027,-9.97,40.9,0
917219.0,-0.021,0.022,-0.004,45.84,99.74,0
917224.0,-0.017,-0.004,0.03,-6.66,29.08,0
917229.0,-0.007,-0.004,-0.03,-7.38,166.83,0
917234.0,-0.017,-0.042,0.004,-68.14,78.06,0
917239.0,-0.005,-0.002,0.006,-12.01,38.09,0
917244.0,-0.005,0.013,0.023,28.9,11.54,0
917249.0,0.0,-0.018,-0.04,-24.88,-179.77,0
917254.0,0.007,0.022,-0.001,71.56,-99.87,0
917259.0,0.01,0.003,-0.016,9.83,-148.1,0
917264.0,-0.005,0.025,0.03,39.32,8.82,0
917269.0,0.022,0.001,-0.018,1.62,-129.72,0
917274.0,-0.043,-0.004,-0.03,-4.36,124.95,0
917279.0,0.029,0.013,0.004,23.69,-83.07,0
917284.0,-0.021,-0.002,-0.008,-3.97,111.58,0
917289.0,0.0,-0.03,0.032,-43.25,-0.28,0
917294.0,-0.002,0.003,0.025,7.23,5.1,0
917299.0,-0.014,0.03,0.006,62.48,67.43,0
917304.0,0.007,-0.016,-0.006,-59.18,-129.56,0
917309.0,0.007,-0.018,-0.035,-27.3,-168.09,0
917314.0,0.026,0.013,0.018,21.78,-55.99,0
917319.0,-0.019,-0.006,-0.004,-18.26,100.94,0
917324.0,-0.019,-0.014,-0.004,-35.04,100.94,0
917329.0,-0.019,-0.023,0.011,-46.72,60.62,0
917334.0,-0.048,-0.004,0.03,-4.05,57.98,0
917339.0,-0.002,-0.028,-0.04,-35.16,176.77,0
917344.0,0.005,-0.006,-0.006,-39.2,-140.8,0
917349.0,0.005,-0.002,0.001,-17.47,-77.28,0
917354.0,0.012,-0.011,0.001,-42.53,-84.74,0
917359.0,-0.009,-0.018,0.006,-58.8,57.91,0
917364.0,-0.009,-0.002,-0.001,-9.53,97.73,0
917369.0,-0.007,-0.021,-0.04,-27.3,169.94,0
917374.0,-0.009,0.032,-0.028,47.57,161.17,0
917379.0,-0.005,-0.014,0.032,-22.61,8.17,0
917384.0,0.005,-0.004,-0.001,-37.98,-104.48,0
917389.0,-0.007,0.03,-0.006,72.55,130.82,0
917394.0,0.005,-0.009,0.006,-48.73,-39.96,0
917399.0,0.01,-0.023,0.008,-61.07,-49.56,0
917404.0,0.015,0.013,-0.02,26.99,-144.59,0
917409.0,0.01,0.003,-0.025,6.73,-158.89,0
917414.0,0.01,0.008,0.013,26.07,-36.65,0
917419.0,-0.019,0.022,-0.016,42.24,129.47,0
917424.0,-0.009,0.006,-0.023,12.75,157.58,0
917429.0,-0.024,0.003,-0.006,7.41,104.31,0
917434.0,-0.017,0.013,-0.018,27.52,137.38,0
917439.0,0.012,0.003,-0.008,12.18,-124.89,0
917444.0,-0.005,0.013,0.027,24.64,9.57,0
917449.0,-0.007,0.01,0.008,43.66,40.24,0
917454.0,0.0,0.003,0.013,13.71,-0.7,0
917459.0,-0.029,0.01,0.018,17.11,57.97,0
917464.0,-0.014,-0.014,0.035,-19.92,22.3,0
917469.0,-0.005,0.008,0.006,46.77,38.09,0
917474.0,0.015,0.02,-0.011,47.73,-126.77,0
917479.0,-0.017,0.013,0.004,36.96,78.06,0
917484.0,-0.002,-0.023,-0.001,-83.65,119.76,0
917489.0,-0.029,-0.004,-0.016,-6.98,118.7,0
917494.0,0.012,0.006,-0.013,17.28,-137.52,0
917499.0,-0.009,-0.04,0.006,-74.43,57.91,0
917504.0,-0.007,0.025,0.039,31.71,10.1,0
917509.0,0.005,0.039,0.02,61.92,-13.72,0
917514.0,0.022,0.001,0.011,1.89,-63.77,0
917519.0,0.005,0.022,-0.054,22.41,-174.76,0
917524.0,-0.021,-0.002,0.042,-1.95,27.09,0
917529.0,0.005,-0.014,0.013,-44.12,-20.71,0
917534.0,-0.036,-0.04,-0.016,-45.64,113.63,0
917539.0,0.005,0.03,0.015,61.17,-17.72,0
917544.0,-0.031,0.001,-0.037,0.94,140.22,0
917549.0,-0.012,0.018,-0.001,55.92,96.18,0
917554.0,-0.014,-0.006,0.035,-9.68,22.3,0
917559.0,0.003,0.013,0.018,35.27,-8.13,0
917564.0,0.0,0.01,0.02,27.1,-0.45,0
917569.0,0.0,-0.014,0.023,-30.9,-0.4,0
917574.0,-0.021,-0.014,0.001,-32.35,87.01,0
917579.0,-0.007,0.01,0.023,23.62,17.22,0
917584.0,-0.017,-0.018,0.013,-40.97,51.75,0
917589.0,0.01,-0.011,0.023,-24.37,-23.25,0
917594.0,-0.009,0.015,-0.008,50.14,131.94,0
917599.0,-0.009,0.015,0.02,34.15,24.92,0
917604.0,0.003,0.008,-0.037,12.08,-176.07,0
917609.0,0.005,-0.021,0.001,-76.26,-77.28,0
917614.0,0.019,0.022,-0.016,41.96,-129.01,0
917619.0,-0.005,0.015,0.001,72.57,76.44,0
917624.0,0.017,-0.03,-0.023,-46.87,-143.45,0
917629.0,0.007,-0.026,-0.001,-73.73,-99.87,0
917634.0,0.0,0.015,0.006,68.72,-1.55,0
917639.0,-0.019,-0.002,-0.016,-3.71,129.47,0
917644.0,-0.009,0.006,-0.04,7.82,166.62,0
917649.0,-0.009,0.006,0.015,17.13,31.31,0
917654.0,0.005,-0.018,-0.035,-27.58,-171.91,0
917659.0,-0.005,-0.023,-0.023,-44.82,168.54,0
917664.0,-0.019,-0.03,-0.006,-56.68,107.71,0
917669.0,-0.036,0.02,0.013,27.66,69.9,0
917674.0,-0.009,0.018,-0.016,43.88,148.95,0
917679.0,-0.019,-0.011,-0.025,-19.49,143.02,0
917684.0,0.005,-0.033,0.008,-73.55,-30.8,0
917689.0,-0.017,-0.002,0.004,-5.37,78.06,0
917694.0,0.0,-0.006,0.015,-22.41,-0.59,0
917699.0,0.003,-0.014,-0.018,-36.68,-171.94,0
917704.0,-0.014,0.018,-0.044,20.65,162.25,0
917709.0,-0.002,-0.016,0.006,-68.42,20.73,0
917714.0,0.007,0.001,0.008,4.12,-41.5,0
917719.0,-0.005,0.015,-0.004,68.71,128.42,0
917724.0,-0.002,-0.009,-0.001,-73.66,119.76,0
917729.0,0.019,0.01,-0.023,19.14,-139.76,0
917734.0,0.015,0.02,-0.004,53.1,-104.19,0
917739.0,0.024,0.022,0.015,37.96,-57.28,0
917744.0,0.026,0.013,0.047,13.4,-29.62,0
917749.0,0.024,-0.002,0.001,-3.78,-87.35,0
917754.0,0.005,-0.028,-0.016,-59.57,-162.45,0
917759.0,0.012,-0.011,-0.006,-39.48,-116.57,0
917764.0,0.017,0.003,-0.011,9.02,-122.68,0
917769.0,0.0,-0.002,-0.013,-6.87,-179.31,0
917774.0,-0.017,-0.002,-0.011,-4.6,123.18,0
917779.0,0.017,0.039,-0.035,45.3,-154.07,0
917784.0,-0.014,-0.006,-0.006,-22.46,113.12,0
917789.0,0.005,0.001,-0.008,4.66,-149.68,0
917794.0,0.005,-0.009,0.037,-13.22,-7.61,0
917799.0,0.0,0.003,0.013,13.71,-0.7,0
917804.0,0.012,0.02,-0.001,58.56,-96.01,0
917809.0,0.012,0.02,-0.018,42.55,-146.08,0
917814.0,0.007,0.022,-0.001,71.56,-99.87,0
917819.0,-0.002,0.001,0.001,17.72,63.45,0
917824.0,-0.024,-0.009,-0.023,-14.91,133.82,0
917829.0,0.005,0.001,0.013,3.27,-20.71,0
917834.0,-0.021,-0.023,-0.011,-43.98,116.91,0
917839.0,-0.017,0.006,-0.023,11.2,143.97,0
917844.0,0.003,-0.045,-0.02,-65.26,-172.88,0
917849.0,-0.009,-0.011,0.011,-38.1,41.37,0
917854.0,0.01,0.006,-0.059,5.36,-170.59,0
917859.0,-0.012,0.013,-0.02,28.42,149.97,0
917864.0,-0.005,0.008,-0.004,53.49,128.42,0
917869.0,0.0,0.001,-0.004,12.25,-177.51,0
917874.0,-0.012,0.02,-0.02,40.21,149.97,0
917879.0,-0.014,-0.006,0.023,-13.42,32.08,0
917884.0,0.01,-0.002,-0.001,-9.23,-97.48,0
917889.0,-0.012,-0.004,-0.008,-15.36,125.61,0
917894.0,-0.002,-0.021,-0.011,-61.89,168.37,0
917899.0,-0.014,0.008,0.018,19.27,38.47,0
917904.0,0.012,0.001,0.018,2.12,-34.16,0
917909.0,0.015,0.006,-0.004,20.45,-104.19,0
917914.0,0.022,0.008,0.018,15.84,-50.53,0
917919.0,-0.033,-0.009,-0.013,-13.74,111.66,0
917924.0,0.019,-0.014,0.027,-22.01,-35.13,0
917929.0,-0.002,-0.014,-0.011,-50.76,168.37,0
917934.0,-0.007,0.015,-0.001,64.79,100.31,0
917939.0,0.007,-0.009,-0.03,-15.86,-166.25,0
917944.0,-0.002,-0.026,0.044,-29.98,2.89,0
917949.0,0.005,0.01,-0.016,32.31,-162.45,0
917954.0,-0.009,0.001,-0.047,0.96,168.62,0
917959.0,-0.005,0.01,-0.011,41.32,156.91,0
917964.0,0.015,0.001,0.023,1.7,-32.65,0
917969.0,0.012,0.01,0.004,39.41,-73.86,0
917974.0,-0.041,0.027,0.006,33.52,81.71,0
917979.0,-0.002,-0.011,0.015,-35.54,8.21,0
917984.0,0.0,0.013,0.018,35.54,-0.51,0
917989.0,-0.005,0.01,-0.016,32.46,163.52,0
917994.0,0.005,-0.002,-0.018,-4.88,-164.66,0
917999.0,-0.017,0.02,-0.032,28.72,152.87,0
918004.0,-0.024,0.013,-0.018,23.16,127.18,0
918009.0,0.003,-0.011,0.011,-45.46,-13.43,0
918014.0,0.024,-0.011,0.006,-24.24,-76.23,0
918019.0,-0.019,-0.014,-0.035,-18.89,151.37,0
918024.0,0.01,-0.011,0.006,-44.46,-58.76,0
918029.0,-0.002,-0.038,0.027,-53.71,4.65,0
918034.0,-0.031,-0.016,-0.013,-25.36,113.16,0
918039.0,-0.005,-0.006,-0.047,-7.74,174.35,0
918044.0,-0.009,-0.014,0.02,-31.26,24.92,0
918049.0,0.029,0.01,-0.004,19.61,-97.24,0
918054.0,-0.041,-0.035,-0.03,-34.84,126.51,0
918059.0,0.012,0.02,-0.028,33.48,-156.28,0
918064.0,-0.031,-0.023,-0.001,-36.75,92.36,0
918069.0,-0.005,0.008,0.023,19.04,11.54,0
918074.0,0.017,-0.009,-0.004,-26.89,-102.24,0
918079.0,-0.033,-0.023,0.006,-34.34,79.96,0
918084.0,0.01,-0.014,-0.03,-23.27,-162.02,0
918089.0,-0.007,-0.009,-0.006,-43.41,130.82,0
918094.0,-0.019,0.03,0.015,50.31,50.82,0
918099.0,-0.002,-0.023,0.039,-30.37,3.24,0
918104.0,-0.041,-0.04,-0.016,-42.56,111.1,0
918109.0,0.074,-0.073,0.092,-31.81,-38.93,0
918114.0,-0.076,0.152,-0.159,40.64,154.36,0
918119.0,-0.122,-0.04,-0.111,-13.58,132.42,0
918124.0,0.247,0.319,0.427,32.9,-30.01,0
918129.0,-0.285,-0.401,-0.449,-37.05,147.62,0
918134.0,0.117,0.111,0.09,36.89,-52.64,0
918139.0,-0.05,-0.358,-0.016,-81.66,107.33,0
918144.0,-0.041,0.032,-0.131,13.14,162.75,0
918149.0,-0.122,-0.15,-0.056,-48.16,114.8,0
918154.0,0.084,0.302,0.2,54.37,-22.79,0
918159.0,0.232,-0.203,0.181,-34.55,-52.14,0
918164.0,0.18,0.111,0.15,25.38,-50.23,0
918169.0,-0.364,-0.32,0.085,-40.59,76.86,0
918174.0,0.637,0.25,0.138,20.97,-77.81,0
918179.0,-0.699,-0.445,-0.638,-25.16,132.4,0
918184.0,0.271,0.458,-0.035,59.21,-97.32,0
918189.0,-0.223,0.051,0.92,3.09,13.59,0
918194.0,0.393,0.386,0.008,44.51,-88.79,0
918199.0,-0.527,-0.571,-1.131,-24.6,155.04,0
918204.0,0.314,0.336,0.202,41.99,-57.2,0
918209.0,-0.239,0.211,0.542,19.64,23.81,0
918214.0,0.273,0.549,-0.042,63.29,-98.74,0
918219.0,-0.397,-0.526,-0.621,-35.49,147.41,0
918224.0,0.35,0.405,0.288,41.81,-50.49,0
918229.0,-0.278,-0.662,-0.008,-67.26,91.75,0
918234.0,0.436,0.542,-0.068,50.85,-98.91,0
918239.0,-0.479,-0.397,0.214,-37.1,65.89,0
918244.0,0.563,0.53,0.499,35.16,-48.43,0
918249.0,-0.069,0.168,-0.42,21.57,170.64,0
918254.0,0.426,0.295,-0.155,33.07,-109.92,0
918259.0,-0.404,-0.294,0.506,-24.38,38.62,0
918264.0,0.323,0.408,-0.087,50.6,-105.14,0
918269.0,-0.409,-0.468,-0.075,-48.38,100.45,0
918274.0,0.264,0.427,-0.054,57.79,-101.57,0
918279.0,-0.555,-0.361,0.327,-29.24,59.53,0
918284.0,0.393,0.496,0.068,51.23,-80.16,0
918289.0,-0.053,0.183,0.073,63.81,35.75,0
918294.0,0.29,0.422,-0.107,53.81,-110.2,0
918299.0,-0.361,-0.449,0.051,-50.91,81.91,0
918304.0,0.402,-0.167,-0.183,-20.67,-114.48,0
918309.0,-0.426,0.173,0.023,22.09,86.95,0
918314.0,0.381,-0.27,-0.109,-34.25,-105.97,0
918319.0,-0.455,0.211,0.047,24.83,84.15,0
918324.0,0.539,-0.251,-0.114,-24.47,-101.93,0
918329.0,0.003,0.365,0.142,68.67,-1.03,0
918334.0,0.316,-0.322,-0.032,-45.41,-95.85,0
918339.0,-0.388,0.197,0.032,26.87,85.25,0
918344.0,0.058,-0.255,-0.049,-73.48,-130.47,0
918349.0,-0.1,0.221,0.071,60.97,54.9,0
918354.0,0.041,-0.212,-0.059,-71.37,-145.18,0
918359.0,-0.026,0.3,0.004,84.97,82.36,0
918364.0,0.094,-0.198,-0.071,-59.36,-127.09,0
918369.0,0.007,0.188,0.099,62.04,-4.23,0
918374.0,0.079,-0.167,-0.119,-49.47,-146.27,0
918379.0,-0.11,0.147,0.051,50.42,64.95,0
918384.0,0.05,-0.169,-0.013,-72.87,-104.72,0
918389.0,-0.033,0.097,0.147,32.62,12.77,0
918394.0,0.062,-0.215,-0.016,-73.32,-104.07,0
918399.0,-0.115,0.223,0.08,57.94,55.08,0
918404.0,0.153,-0.081,-0.03,-27.28,-101.07,0
918409.0,-0.081,0.3,0.097,67.15,39.98,0
918414.0,0.201,-0.27,-0.085,-50.99,-112.91,0
918419.0,-0.026,0.137,0.061,64.2,23.24,0
918424.0,0.12,-0.21,-0.075,-55.98,-122.2,0
918429.0,-0.06,0.219,0.114,59.59,27.71,0
918434.0,0.072,-0.234,-0.087,-64.15,-140.55,0
918439.0,-0.254,0.147,0.123,27.51,64.09,0
918444.0,0.077,-0.126,0.004,-58.64,-87.38,0
918449.0,-0.129,0.216,0.097,53.26,53.12,0
918454.0,0.218,-0.097,-0.071,-23.01,-107.97,0
918459.0,-0.079,0.053,0.035,31.84,66.29,0
918464.0,0.319,-0.143,0.073,-23.61,-77.1,0
918469.0,-0.139,0.173,0.126,42.78,47.83,0
918474.0,0.266,-0.145,0.011,-28.62,-87.7,0
918479.0,-0.129,0.168,0.051,50.47,68.3,0
918484.0,0.129,-0.176,0.073,-49.89,-60.6,0
918489.0,-0.112,0.156,0.202,34.06,29.06,0
918494.0,0.096,-0.093,0.128,-30.06,-36.85,0
918499.0,-0.076,0.144,0.152,40.34,26.71,0
918504.0,0.244,-0.136,-0.145,-25.53,-120.67,0
918509.0,-0.158,0.113,-0.097,31.45,121.58,0
918514.0,0.297,-0.16,0.044,-27.99,-81.53,0
918519.0,-0.194,0.125,0.004,32.88,88.96,0
918524.0,0.177,-0.112,-0.15,-25.71,-130.17,0
918529.0,-0.086,0.279,0.202,51.73,23.05,0
918534.0,0.194,-0.121,0.207,-23.15,-43.15,0
918539.0,-0.146,-0.061,0.059,-21.35,68.12,0
918544.0,0.153,-0.136,0.042,-40.48,-74.75,0
918549.0,-0.184,0.183,0.262,29.71,35.1,0
918554.0,0.316,0.018,0.006,3.18,-88.93,0
918559.0,-0.234,-0.016,-0.186,-3.06,128.37,0
918564.0,0.302,-0.009,0.121,-1.55,-68.18,0
918569.0,-0.187,0.152,0.264,25.1,35.2,0
918574.0,0.316,-0.038,-0.104,-6.43,-108.24,0
918579.0,-0.167,-0.093,-0.138,-23.12,129.44,0
918584.0,0.208,-0.148,0.178,-28.29,-49.46,0
918589.0,-0.048,0.094,0.19,25.65,14.08,0
918594.0,0.244,0.02,-0.131,4.12,-118.12,0
918599.0,-0.098,0.027,0.197,7.02,26.4,0
918604.0,0.264,-0.035,0.391,-4.26,-33.95,0
918609.0,-0.218,-0.081,-0.013,-20.28,93.48,0
918614.0,0.228,0.037,-0.241,6.32,-136.6,0
918619.0,-0.203,0.116,0.135,25.36,56.38,0
918624.0,0.252,-0.038,0.238,-6.18,-46.57,0
918629.0,-0.211,-0.071,-0.008,-18.63,92.3,0
918634.0,0.292,0.02,-0.121,3.61,-112.49,0
918639.0,-0.191,0.015,0.197,3.16,44.11,0
918644.0,0.261,0.051,0.173,9.25,-56.4,0
918649.0,-0.275,-0.133,-0.087,-24.78,107.63,0
918654.0,0.376,0.037,-0.016,5.57,-92.38,0
918659.0,-0.155,-0.035,0.248,-6.85,32.11,0
918664.0,0.366,0.085,0.157,11.98,-66.84,0
918669.0,-0.194,-0.076,0.008,-21.35,87.55,0
918674.0,0.331,0.097,0.15,14.9,-65.66,0
918679.0,-0.134,-0.021,0.166,-5.55,38.84,0
918684.0,0.278,-0.002,0.133,-0.3,-64.46,0
918689.0,-0.22,-0.035,0.092,-8.37,67.29,0
918694.0,0.417,0.077,0.193,9.57,-65.19,0
918699.0,-0.208,-0.174,0.047,-39.2,77.38,0
918704.0,0.299,0.092,-0.107,16.11,-109.6,0
918709.0,-0.211,-0.164,0.023,-37.83,83.86,0
918714.0,0.328,0.149,0.157,22.31,-64.47,0
918719.0,-0.275,-0.109,0.027,-21.57,84.3,0
918724.0,0.232,0.049,-0.071,11.33,-106.92,0
918729.0,-0.211,-0.035,0.042,-9.29,78.77,0
918734.0,0.35,0.109,0.162,15.74,-65.21,0
918739.0,-0.201,-0.124,0.08,-29.76,68.26,0
918744.0,0.378,0.063,0.14,8.88,-69.7,0
918749.0,-0.285,-0.203,0.035,-35.25,83.06,0
918754.0,0.304,0.221,0.004,36.0,-89.34,0
918759.0,-0.258,-0.16,-0.066,-30.9,104.31,0
918764.0,0.299,0.128,0.253,18.06,-49.86,0
918769.0,-0.256,-0.152,0.056,-30.18,77.62,0
918774.0,0.359,0.094,0.056,14.52,-81.11,0
918779.0,-0.27,-0.069,-0.04,-14.1,98.33,0
918784.0,0.398,0.149,0.193,18.66,-64.15,0
918789.0,-0.16,-0.248,0.087,-53.67,61.42,0
918794.0,0.493,0.252,0.087,26.72,-79.96,0
918799.0,-0.139,-0.112,0.083,-34.69,59.25,0
918804.0,0.4,0.14,0.006,19.25,-89.15,0
918809.0,-0.29,0.168,0.145,27.48,63.44,0
918814.0,0.18,0.18,0.011,45.05,-86.59,0
918819.0,-0.407,-0.167,-0.004,-22.29,90.52,0
918824.0,0.24,0.211,0.025,41.28,-84.03,0
918829.0,-0.395,-0.351,0.008,-41.64,88.8,0
918834.0,0.489,0.216,0.188,22.45,-68.97,0
918839.0,-0.227,-0.198,0.023,-40.91,84.31,0
918844.0,0.596,0.298,0.226,25.02,-69.23,0
918849.0,0.106,0.216,-0.052,61.5,-116.04,0
918854.0,0.498,0.207,0.03,22.5,-86.57,0
918859.0,-0.208,-0.241,-0.099,-46.26,115.54,0
918864.0,0.445,0.243,0.004,28.57,-89.55,0
918869.0,-0.23,-0.284,-0.078,-49.51,108.73,0
918874.0,0.426,0.221,-0.499,18.61,-139.51,0
918879.0,-0.311,-0.277,0.104,-40.17,71.5,0
918884.0,0.345,0.329,0.011,43.62,-88.22,0
918889.0,0.01,0.197,-0.013,85.23,-143.69,0
918894.0,0.441,0.341,-0.459,28.18,-136.14,0
918899.0,-0.153,-0.282,-0.169,-51.03,137.81,0
918904.0,0.455,-0.152,-0.205,-16.99,-114.23,0
918909.0,-0.287,0.255,0.111,39.58,68.82,0
918914.0,0.422,-0.471,-0.234,-44.34,-118.98,0
918919.0,-0.287,0.247,0.044,40.42,81.25,0
918924.0,0.422,-0.258,-0.145,-30.04,-108.97,0
918929.0,-0.014,0.274,0.054,78.51,14.79,0
918934.0,0.376,-0.282,-0.102,-35.87,-105.15,0
918939.0,-0.402,0.221,0.123,27.73,72.96,0
918944.0,0.331,-0.222,-0.104,-32.62,-107.5,0
918949.0,0.06,0.24,0.037,73.64,-58.33,0
918954.0,-0.105,-0.219,-0.138,-51.7,142.63,0
918959.0,0.017,0.099,-0.02,74.99,-140.37,0
918964.0,-0.062,-0.157,-0.243,-32.07,165.67,0
918969.0,0.089,0.235,0.111,58.85,-38.58,0
918974.0,-0.084,-0.301,-0.071,-70.0,130.21,0
918979.0,-0.012,0.24,0.027,82.91,23.28,0
918984.0,-0.223,-0.253,-0.303,-33.94,143.7,0
918989.0,-0.002,0.219,0.059,74.99,2.18,0
918994.0,-0.165,-0.287,-0.123,-54.28,126.78,0
918999.0,-0.06,0.173,-0.109,54.33,151.3,0
919004.0,-0.213,-0.284,-0.32,-36.49,146.34,0
919009.0,-0.06,0.228,-0.03,73.68,116.69,0
919014.0,-0.108,-0.212,-0.222,-40.76,154.1,0
919019.0,-0.124,0.192,-0.052,55.01,112.52,0
919024.0,-0.103,-0.181,-0.143,-45.87,144.2,0
919029.0,-0.002,0.221,0.128,59.92,1.0,0
919034.0,-0.139,-0.366,-0.102,-64.79,126.29,0
919039.0,0.034,0.288,0.008,83.13,-76.16,0
919044.0,0.05,-0.291,-0.085,-71.25,-149.34,0
919049.0,0.12,0.343,0.207,55.12,-30.07,0
919054.0,-0.021,-0.456,-0.121,-74.94,169.97,0
919059.0,-0.033,0.312,0.056,78.17,30.7,0
919064.0,-0.088,-0.222,-0.092,-60.06,136.21,0
919069.0,-0.036,0.2,0.013,79.2,69.9,0
919074.0,-0.112,-0.212,-0.152,-48.3,143.55,0
919079.0,-0.045,0.18,0.035,72.45,52.62,0
919084.0,-0.076,-0.207,-0.188,-45.63,157.87,0
919089.0,0.0,0.226,0.056,76.03,-0.16,0
919094.0,0.01,-0.277,-0.09,-71.92,-173.82,0
919099.0,-0.043,0.113,0.123,40.97,19.21,0
919104.0,0.048,-0.078,-0.085,-38.68,-150.55,0
919109.0,0.01,0.216,0.097,65.76,-5.74,0
919114.0,0.007,-0.231,-0.107,-65.21,-176.06,0
919119.0,-0.108,0.231,0.106,56.73,45.3,0
919124.0,-0.06,-0.227,-0.171,-51.33,160.78,0
919129.0,-0.194,0.164,-0.123,35.46,122.49,0
919134.0,-0.021,-0.167,-0.207,-38.69,174.11,0
919139.0,-0.124,0.089,0.059,33.04,64.77,0
919144.0,-0.002,-0.105,-0.143,-36.26,179.1,0
919149.0,0.015,0.3,0.018,85.61,-39.1,0
919154.0,0.022,-0.354,-0.056,-80.31,-158.93,0
919159.0,0.043,0.226,0.037,75.85,-49.43,0
919164.0,-0.136,-0.356,-0.202,-55.57,146.04,0
919169.0,-0.093,0.245,0.078,63.65,50.18,0
919174.0,0.07,-0.191,0.039,-67.25,-60.47,0
919179.0,-0.191,0.204,0.027,46.58,81.84,0
919184.0,0.091,-0.186,-0.157,-45.7,-149.85,0
919189.0,-0.072,0.245,0.118,60.53,31.18,0
919194.0,0.175,-0.253,0.109,-50.84,-58.11,0
919199.0,-0.062,0.142,0.039,62.63,57.59,0
919204.0,-0.009,-0.21,-0.301,-34.92,178.21,0
919209.0,0.096,0.329,0.118,65.13,-39.01,0
919214.0,0.137,-0.227,0.083,-54.85,-58.87,0
919219.0,-0.105,0.166,0.092,49.9,48.8,0
919224.0,-0.038,-0.217,-0.25,-40.61,171.33,0
919229.0,-0.086,0.235,0.135,55.76,32.47,0
919234.0,0.161,-0.069,0.207,-14.68,-37.8,0
919239.0,-0.167,0.118,0.236,22.22,35.38,0
919244.0,0.163,-0.196,-0.114,-44.53,-124.93,0
919249.0,-0.072,0.144,0.018,62.92,75.99,0
919254.0,0.156,-0.1,-0.131,-26.14,-129.97,0
919259.0,-0.048,0.197,0.032,73.71,55.96,0
919264.0,0.149,-0.248,-0.087,-55.21,-120.48,0
919269.0,-0.038,0.152,0.109,52.74,19.31,0
919274.0,0.072,-0.234,-0.111,-60.44,-147.13,0
919279.0,-0.187,0.152,0.09,36.22,64.32,0
919284.0,0.022,-0.119,0.092,-51.49,-13.26,0
919289.0,-0.134,0.159,0.071,46.38,62.22,0
919294.0,0.101,-0.172,-0.14,-44.83,-144.3,0
919299.0,-0.024,0.063,0.152,22.29,8.9,0
919304.0,0.285,-0.073,0.14,-13.02,-63.85,0
919309.0,-0.002,0.231,0.183,51.56,0.7,0
919314.0,0.225,-0.052,0.001,-12.97,-89.72,0
919319.0,-0.093,-0.057,0.006,-31.24,86.38,0
919324.0,0.134,-0.097,-0.08,-31.9,-120.88,0
919329.0,-0.151,0.123,0.071,36.45,64.91,0
919334.0,0.17,-0.081,-0.028,-25.06,-99.22,0
919339.0,-0.17,0.123,0.032,35.41,79.25,0
919344.0,0.18,-0.243,0.051,-52.48,-74.04,0
919349.0,-0.038,0.219,0.164,52.42,13.1,0
919354.0,0.218,-0.124,0.011,-29.54,-87.19,0
919359.0,-0.055,0.164,0.116,51.88,25.32,0
919364.0,0.283,-0.157,0.094,-27.81,-71.52,0
919369.0,-0.196,0.082,-0.097,20.59,116.32,0
919374.0,0.285,-0.093,-0.032,-17.88,-96.48,0
919379.0,-0.134,-0.021,0.166,-5.55,38.84,0
919384.0,0.204,-0.038,0.135,-8.72,-56.42,0
919389.0,-0.17,0.089,-0.001,27.76,90.43,0
919394.0,0.18,-0.097,-0.049,-27.59,-105.3,0
919399.0,-0.024,0.128,0.221,29.83,6.13,0
919404.0,0.232,-0.181,0.073,-36.64,-72.57,0
919409.0,-0.088,0.31,-0.138,62.14,147.3,0
919414.0,0.299,-0.064,0.094,-11.49,-72.49,0
919419.0,-0.151,0.046,0.2,10.48,37.02,0
919424.0,0.316,-0.133,-0.052,-22.59,-99.26,0
919429.0,-0.132,0.073,0.035,28.1,75.25,0
919434.0,0.266,-0.083,0.121,-15.86,-65.56,0
919439.0,-0.213,0.008,0.066,2.05,72.84,0
919444.0,0.319,-0.066,0.023,-11.72,-85.93,0
919449.0,0.182,0.358,0.027,62.75,-81.43,0
919454.0,0.359,0.08,0.19,11.11,-62.1,0
919459.0,-0.005,0.125,0.178,35.09,1.49,0
919464.0,0.273,-0.093,0.099,-17.67,-70.02,0
919469.0,-0.053,0.039,-0.095,19.86,150.98,0
919474.0,0.278,-0.088,-0.305,-12.0,-137.7,0
919479.0,-0.184,0.068,0.063,19.2,71.02,0
919484.0,0.343,-0.045,-0.092,-7.18,-105.07,0
919489.0,0.098,0.286,0.013,70.85,-82.42,0
919494.0,0.285,-0.095,-0.387,-11.18,-143.61,0
919499.0,-0.189,-0.014,0.006,-4.1,88.21,0
919504.0,0.264,0.061,-0.217,10.08,-129.44,0
919509.0,-0.158,0.123,-0.107,32.83,124.04,0
919514.0,0.39,-0.416,-0.178,-44.09,-114.56,0
919519.0,-0.22,0.537,0.051,67.18,76.86,0
919524.0,0.316,-0.411,-0.289,-43.83,-132.39,0
919529.0,0.106,0.267,0.011,68.31,-84.21,0
919534.0,0.393,-0.385,-0.09,-43.67,-102.89,0
919539.0,-0.199,0.42,-0.011,64.65,93.13,0
919544.0,0.223,-0.241,-0.305,-32.52,-143.88,0
919549.0,-0.27,0.286,0.135,43.38,63.44,0
919554.0,-0.256,-0.435,0.011,-59.5,87.61,0
919559.0,0.185,0.298,0.018,58.09,-84.47,0
919564.0,-0.239,-0.227,-0.291,-31.03,140.57,0
919569.0,0.213,0.305,0.138,50.22,-57.17,0
919574.0,-0.34,-0.342,-0.131,-43.18,111.02,0
919579.0,0.106,0.2,-0.111,52.44,-136.56,0
919584.0,-0.342,-0.198,-0.356,-21.85,136.1,0
919589.0,0.079,0.288,0.025,73.92,-72.44,0
919594.0,-0.34,-0.301,-0.207,-37.09,121.37,0
919599.0,0.077,0.202,-0.114,55.79,-146.0,0
919604.0,-0.285,-0.258,-0.322,-30.95,138.52,0
919609.0,0.12,0.322,0.078,66.05,-57.04,0
919614.0,-0.227,-0.236,-0.147,-41.09,122.95,0
919619.0,0.177,0.286,0.063,56.61,-70.34,0
919624.0,-0.294,-0.385,-0.236,-45.56,128.71,0
919629.0,0.024,0.271,-0.083,72.39,-163.75,0
919634.0,-0.452,-0.207,-0.42,-18.58,132.89,0
919639.0,0.053,0.341,-0.023,80.41,-113.37,0
919644.0,-0.273,-0.33,-0.166,-45.89,121.4,0
919649.0,0.017,0.286,-0.054,78.81,-162.59,0
919654.0,-0.199,-0.277,-0.262,-40.09,142.87,0
919659.0,0.117,0.264,0.063,63.19,-61.66,0
919664.0,-0.179,-0.205,-0.281,-31.57,147.48,0
919669.0,0.082,0.116,-0.075,46.16,-132.79,0
919674.0,-0.275,-0.279,-0.222,-38.33,128.84,0
919679.0,0.067,0.305,0.092,69.5,-36.12,0
919684.0,-0.275,-0.27,-0.303,-33.39,137.75,0
919689.0,-0.002,0.209,-0.075,70.14,178.3,0
919694.0,-0.249,-0.373,-0.178,-50.59,125.65,0
919699.0,0.007,0.286,0.061,77.87,-6.87,0
919704.0,-0.196,-0.188,-0.241,-31.24,140.82,0
919709.0,0.082,0.243,-0.119,59.32,-145.48,0
919714.0,-0.23,-0.401,-0.305,-46.41,143.05,0
919719.0,0.043,0.322,0.073,75.23,-30.67,0
919724.0,-0.225,-0.143,-0.183,-26.22,129.17,0
919729.0,0.079,0.281,-0.052,71.41,-123.07,0
919734.0,-0.311,-0.387,-0.324,-40.73,136.21,0
919739.0,-0.029,0.123,-0.073,57.44,158.65,0
919744.0,-0.115,-0.176,-0.08,-51.55,124.98,0
919749.0,0.017,0.329,0.047,81.42,-19.95,0
919754.0,-0.136,-0.361,-0.341,-44.47,158.23,0
919759.0,0.122,0.188,-0.068,53.25,-119.19,0
919764.0,-0.091,-0.246,-0.016,-69.45,99.77,0
919769.0,0.194,0.302,0.312,39.44,-31.86,0
919774.0,-0.249,-0.368,-0.245,-46.47,134.61,0
919779.0,0.053,0.302,-0.119,66.77,-155.99,0
919784.0,-0.067,-0.272,-0.135,-60.98,153.71,0
919789.0,0.046,0.267,0.19,53.72,-13.49,0
919794.0,-0.256,-0.279,-0.157,-42.93,121.5,0
919799.0,0.041,0.2,0.08,65.73,-27.02,0
919804.0,-0.108,-0.253,-0.135,-55.65,141.52,0
919809.0,0.029,0.274,-0.02,82.63,-125.27,0
919814.0,-0.199,-0.279,-0.327,-36.14,148.72,0
919819.0,0.074,0.331,0.008,77.27,-83.63,0
919824.0,-0.167,-0.267,-0.166,-48.55,134.84,0
919829.0,-0.024,0.216,-0.035,78.97,145.65,0
919834.0,-0.189,-0.282,-0.267,-40.73,144.71,0
919839.0,-0.069,0.276,0.037,74.12,61.87,0
919844.0,-0.139,-0.14,-0.152,-34.31,137.64,0
919849.0,0.005,0.183,0.066,70.16,-4.3,0
919854.0,-0.143,-0.31,-0.162,-55.15,138.41,0
919859.0,0.137,0.192,0.094,49.18,-55.33,0
919864.0,-0.067,-0.224,-0.126,-57.58,152.0,0
919869.0,0.041,0.25,-0.03,78.53,-126.29,0
919874.0,-0.129,-0.332,-0.279,-47.2,155.16,0
919879.0,-0.024,0.262,0.025,82.48,43.5,0
919884.0,-0.213,-0.322,-0.257,-43.98,140.41,0
919889.0,-0.026,0.317,-0.025,83.46,133.93,0
919894.0,-0.16,-0.346,-0.143,-58.23,131.65,0
919899.0,0.046,0.276,0.133,63.04,-18.97,0
919904.0,0.007,-0.239,-0.044,-79.33,-170.6,0
919909.0,0.062,0.202,0.004,72.8,-86.78,0
919914.0,-0.05,-0.337,-0.186,-60.28,164.89,0
919919.0,-0.105,0.276,0.071,65.36,56.15,0
919924.0,-0.17,-0.27,-0.155,-49.6,132.3,0
919929.0,-0.019,0.252,-0.013,84.75,124.9,0
919934.0,-0.103,-0.2,-0.109,-53.2,136.68,0
919939.0,-0.084,0.152,0.032,59.41,68.92,0
919944.0,-0.041,-0.231,-0.164,-53.86,166.12,0
919949.0,-0.012,0.243,0.075,72.55,8.91,0
919954.0,-0.155,-0.188,-0.25,-32.59,148.15,0
919959.0,0.017,0.314,-0.066,77.79,-165.61,0
919964.0,-0.038,-0.279,-0.147,-61.42,165.48,0
919969.0,-0.064,0.164,0.166,42.53,21.19,0
919974.0,0.022,-0.361,-0.219,-58.6,-174.34,0
919979.0,-0.1,0.362,0.075,70.89,53.12,0
919984.0,-0.031,-0.212,0.018,-80.44,60.0,0
919989.0,0.012,0.243,0.193,51.49,-3.6,0
919994.0,-0.129,-0.342,-0.234,-52.0,151.06,0
919999.0,0.058,0.293,0.025,77.89,-66.5,0
920004.0,0.031,-0.243,0.035,-79.15,-42.09,0
920009.0,0.084,0.137,-0.104,45.72,-141.15,0
920014.0,0.139,-0.236,-0.126,-51.56,-132.14,0
920019.0,-0.081,0.307,0.154,60.42,27.76,0
920024.0,0.175,-0.093,0.09,-25.22,-62.85,0
920029.0,-0.017,0.19,0.047,75.4,19.6,0
920034.0,-0.029,-0.301,-0.217,-54.0,172.49,0
920039.0,-0.098,0.183,0.159,44.36,31.63,0
920044.0,0.055,-0.217,0.051,-70.84,-47.06,0
920049.0,-0.127,0.374,-0.104,66.33,129.43,0
920054.0,0.074,-0.2,-0.104,-57.41,-144.49,0
920059.0,-0.009,0.245,0.212,49.13,2.55,0
920064.0,0.067,-0.31,-0.097,-69.18,-145.3,0
920069.0,-0.002,0.276,0.004,89.14,32.48,0
920074.0,0.175,-0.303,-0.114,-55.47,-123.05,0
920079.0,-0.024,0.144,-0.035,73.73,145.65,0
920084.0,0.077,-0.112,-0.303,-19.67,-165.78,0
920089.0,0.386,0.484,0.19,48.41,-63.74,0
920094.0,0.043,-0.181,0.13,-52.82,-18.35,0
920099.0,-0.158,0.085,0.166,20.25,43.51,0
920104.0,-0.05,-0.267,-0.277,-43.56,169.73,0
920109.0,-0.091,0.326,0.128,64.32,35.36,0
920114.0,0.199,-0.097,-0.004,-26.08,-91.06,0
920119.0,-0.033,0.413,-0.016,84.9,115.12,0
920124.0,0.053,-0.344,-0.425,-38.77,-172.91,0
920129.0,0.273,0.386,0.068,53.92,-75.99,0
920134.0,0.137,-0.363,0.023,-69.12,-80.58,0
920139.0,-0.16,0.434,0.013,69.68,85.33,0
920144.0,0.098,-0.495,-0.303,-57.23,-162.02,0
920149.0,-0.122,0.444,0.118,69.04,45.84,0
920154.0,0.196,-0.485,-0.035,-67.65,-100.04,0
920159.0,-0.048,0.408,-0.085,76.55,150.71,0
920164.0,-0.306,-0.416,-0.147,-50.74,115.69,0
920169.0,0.323,0.482,0.209,51.37,-57.07,0
920174.0,-0.261,-0.449,-0.064,-59.14,103.69,0
920179.0,0.273,0.417,-0.02,56.73,-94.28,0
920184.0,-0.412,-0.483,-0.006,-49.55,90.84,0
920189.0,0.319,0.494,0.207,52.44,-56.98,0
920194.0,-0.483,-0.413,-0.303,-35.93,122.07,0
920199.0,0.266,0.453,-0.03,59.44,-96.44,0
920204.0,-0.347,-0.449,0.044,-52.1,82.74,0
920209.0,0.275,0.37,0.15,49.69,-61.5,0
920214.0,-0.404,-0.375,-0.396,-33.52,134.42,0
920219.0,0.34,0.374,-0.006,47.73,-91.02,0
920224.0,-0.299,-0.416,-0.001,-54.27,90.24,0
920229.0,0.319,0.393,0.15,48.19,-64.85,0
920234.0,-0.304,-0.404,-0.166,-49.37,118.71,0
920239.0,0.266,0.417,0.176,52.63,-56.52,0
920244.0,-0.424,-0.43,-0.138,-44.0,108.01,0
920249.0,0.115,0.389,-0.15,64.09,-142.45,0
920254.0,-0.357,-0.318,-0.42,-29.96,139.69,0
920259.0,0.228,0.434,-0.104,60.03,-114.6,0
920264.0,-0.321,-0.387,-0.174,-46.71,118.44,0
920269.0,0.302,0.312,0.114,44.05,-69.37,0
920274.0,-0.357,-0.313,-0.035,-41.13,95.57,0
920279.0,0.213,0.35,0.128,54.63,-59.02,0
920284.0,-0.467,-0.382,-0.214,-36.66,114.67,0
920289.0,0.122,0.31,0.066,65.85,-61.73,0
920294.0,-0.333,-0.298,-0.217,-36.94,123.09,0
920299.0,0.199,0.374,-0.087,59.87,-113.74,0
920304.0,-0.256,-0.332,-0.193,-46.01,126.98,0
920309.0,0.218,0.367,0.071,58.03,-72.07,0
920314.0,-0.273,-0.361,-0.212,-46.24,127.85,0
920319.0,0.192,0.379,-0.087,60.93,-114.53,0
920324.0,-0.397,-0.373,-0.344,-35.36,130.86,0
920329.0,0.156,0.298,-0.068,60.25,-113.68,0
920334.0,-0.402,-0.387,-0.083,-43.32,101.62,0
920339.0,0.144,0.506,0.087,71.61,-58.74,0
920344.0,-0.392,-0.392,-0.274,-39.3,124.94,0
920349.0,0.211,0.314,0.011,56.12,-87.1,0
920354.0,-0.333,-0.38,-0.159,-45.85,115.59,0
920359.0,0.247,0.401,-0.042,58.0,-99.65,0
920364.0,-0.206,-0.222,-0.255,-34.1,141.11,0
920369.0,0.141,0.135,0.075,40.09,-61.95,0
920374.0,-0.357,-0.418,-0.202,-45.57,119.58,0
920379.0,0.177,0.439,0.054,67.11,-73.13,0
920384.0,-0.345,-0.181,-0.224,-23.79,123.02,0
920389.0,0.132,0.252,-0.044,61.12,-108.6,0
920394.0,-0.33,-0.449,-0.222,-48.49,123.86,0
920399.0,0.151,0.298,-0.004,63.1,-91.39,0
920404.0,-0.347,-0.277,-0.332,-29.98,133.71,0
920409.0,0.18,0.393,-0.109,61.89,-121.24,0
920414.0,-0.297,-0.339,-0.286,-39.45,133.96,0
920419.0,0.115,0.233,0.049,61.78,-66.94,0
920424.0,-0.414,-0.246,-0.238,-27.23,119.92,0
920429.0,0.158,0.348,0.035,65.04,-77.65,0
920434.0,-0.419,-0.392,-0.159,-41.17,110.82,0
920439.0,0.055,0.319,0.018,79.69,-72.06,0
920444.0,-0.206,-0.445,-0.186,-58.06,132.06,0
920449.0,0.096,0.401,0.063,73.99,-56.55,0
920454.0,-0.27,-0.287,-0.329,-33.92,140.61,0
920459.0,0.189,0.283,-0.198,45.99,-136.23,0
920464.0,-0.278,-0.248,-0.36,-28.62,142.4,0
920469.0,0.247,0.171,0.054,34.07,-77.7,0
920474.0,-0.364,-0.263,-0.188,-32.67,117.33,0
920479.0,0.077,0.264,0.004,73.78,-87.38,0
920484.0,-0.268,-0.267,-0.15,-41.05,119.19,0
920489.0,0.11,0.307,0.183,55.18,-31.07,0
920494.0,-0.306,-0.258,-0.14,-37.43,114.59,0
920499.0,-0.005,0.322,-0.109,71.26,177.57,0
920504.0,-0.179,-0.287,-0.214,-45.71,140.07,0
920509.0,0.146,0.243,0.078,55.69,-62.0,0
920514.0,-0.299,-0.349,-0.36,-36.67,140.31,0
920519.0,0.161,0.312,-0.195,50.99,-140.56,0
920524.0,-0.124,-0.09,-0.135,-26.14,137.43,0
920529.0,0.11,0.197,0.116,50.92,-43.55,0
920534.0,-0.424,-0.389,-0.37,-34.7,131.13,0
920539.0,0.0,0.267,-0.064,76.59,-179.86,0
920544.0,-0.302,-0.174,-0.138,-27.69,114.55,0
920549.0,0.077,0.274,-0.001,74.33,-90.95,0
920554.0,-0.254,-0.327,-0.308,-39.37,140.51,0
920559.0,0.089,0.207,0.138,51.62,-32.82,0
920564.0,-0.055,-0.231,-0.03,-74.87,118.66,0
920569.0,0.077,0.329,-0.008,76.78,-96.29,0
920574.0,-0.258,-0.251,-0.435,-26.36,149.27,0
920579.0,0.053,0.257,0.044,74.99,-50.08,0
920584.0,-0.218,-0.356,-0.075,-57.08,109.13,0
920589.0,0.122,0.274,0.09,61.02,-53.73,0
920594.0,-0.158,-0.253,-0.183,-46.29,139.26,0
920599.0,0.196,0.413,0.08,62.78,-67.81,0
920604.0,-0.122,-0.306,-0.104,-62.31,130.52,0
920609.0,0.115,0.164,0.188,36.6,-31.49,0
920614.0,-0.213,-0.361,-0.15,-54.19,125.11,0
920619.0,0.041,0.271,-0.102,67.98,-158.14,0
920624.0,-0.22,-0.215,-0.36,-26.95,148.59,0
920629.0,0.11,0.132,0.164,33.84,-33.93,0
920634.0,-0.225,-0.435,-0.004,-62.66,90.94,0
920639.0,0.019,0.367,-0.018,85.88,-133.04,0
920644.0,-0.105,-0.157,-0.25,-30.08,157.2,0
920649.0,0.469,0.235,0.197,24.81,-67.19,0
920654.0,-0.237,-0.435,-0.248,-51.75,136.3,0
920659.0,0.048,0.152,-0.099,53.93,-154.21,0
920664.0,-0.177,-0.126,-0.222,-23.97,141.38,0
920669.0,0.062,0.267,0.068,70.88,-42.48,0
920674.0,-0.199,-0.425,0.013,-64.93,86.23,0
920679.0,-0.002,0.123,0.152,38.96,0.84,0
920684.0,-0.093,-0.138,0.042,-53.5,65.84,0
920689.0,0.381,0.353,0.099,41.87,-75.39,0
920694.0,-0.124,-0.188,-0.028,-55.93,102.52,0
920699.0,-0.029,0.132,0.181,35.91,8.99,0
920704.0,-0.103,-0.258,-0.011,-68.15,96.03,0
920709.0,0.019,0.269,0.09,71.16,-12.15,0
920714.0,-0.237,-0.26,0.004,-47.68,89.15,0
920719.0,0.031,0.293,0.193,56.32,-9.22,0
920724.0,-0.093,-0.356,0.02,-75.0,77.73,0
920729.0,0.388,0.341,0.078,40.73,-78.67,0
920734.0,-0.129,-0.284,-0.104,-59.71,128.91,0
920739.0,-0.088,0.334,0.118,66.1,36.75,0
920744.0,0.024,-0.428,0.147,-70.78,-9.3,0
920749.0,-0.062,0.449,0.207,64.27,16.7,0
920754.0,-0.076,-0.32,-0.123,-65.6,148.22,0
920759.0,0.012,0.36,-0.056,80.9,-167.85,0
920764.0,-0.457,-0.437,-0.066,-43.44,98.21,0
920769.0,0.414,0.453,0.185,44.96,-65.89,0
920774.0,-0.352,-0.363,0.063,-45.45,79.79,0
920779.0,0.438,0.334,0.061,37.01,-82.08,0
920784.0,-0.366,-0.452,-0.195,-47.43,118.06,0
920789.0,0.457,0.41,0.195,39.52,-66.91,0
920794.0,-0.388,-0.301,0.106,-36.81,74.65,0
920799.0,0.489,0.425,0.152,39.69,-72.72,0
920804.0,-0.445,-0.44,-0.092,-44.05,101.71,0
920809.0,0.331,0.384,0.004,49.27,-89.39,0
920814.0,-0.268,-0.303,-0.064,-47.76,103.34,0
920819.0,0.331,0.389,0.145,47.12,-66.35,0
920824.0,-0.44,-0.404,-0.066,-42.2,98.51,0
920829.0,0.364,0.372,0.099,44.58,-74.75,0
920834.0,-0.426,-0.363,-0.183,-38.06,113.27,0
920839.0,0.278,0.312,-0.19,42.81,-124.42,0
920844.0,-0.39,-0.356,-0.123,-41.02,107.55,0
920849.0,0.347,0.484,0.298,46.63,-49.37,0
920854.0,-0.4,-0.315,-0.212,-34.87,117.94,0
920859.0,0.34,0.336,-0.188,40.84,-118.93,0
920864.0,-0.412,-0.38,-0.068,-42.31,99.42,0
920869.0,0.347,0.405,0.279,42.31,-51.24,0
920874.0,-0.443,-0.416,-0.133,-41.97,106.71,0
920879.0,0.328,0.472,-0.006,55.21,-91.06,0
920884.0,-0.4,-0.49,-0.068,-50.39,99.7,0
920889.0,0.398,0.403,0.066,45.0,-80.61,0
920894.0,-0.376,-0.246,-0.212,-29.67,119.43,0
920899.0,0.438,0.432,0.19,42.1,-66.54,0
920904.0,-0.318,-0.351,0.006,-47.81,88.94,0
920909.0,0.249,0.312,-0.257,41.05,-135.94,0
920914.0,-0.457,-0.468,-0.444,-36.31,134.18,0
920919.0,0.309,0.556,0.253,54.34,-50.75,0
920924.0,-0.419,-0.416,0.195,-41.99,65.03,0
920929.0,0.271,0.324,-0.09,48.64,-108.36,0
920934.0,-0.337,-0.445,-0.341,-42.81,135.32,0
920939.0,0.398,0.384,0.121,42.73,-73.1,0
920944.0,-0.392,-0.354,0.047,-41.81,83.23,0
920949.0,0.35,0.338,0.097,43.0,-74.52,0
920954.0,-0.431,-0.363,-0.265,-35.69,121.56,0
920959.0,0.469,0.48,0.044,45.49,-84.62,0
920964.0,-0.524,-0.483,-0.073,-42.37,97.94,0
920969.0,0.328,0.429,0.071,51.98,-77.87,0
920974.0,-0.366,-0.531,-0.157,-53.11,113.2,0
920979.0,0.285,0.575,0.087,62.61,-72.97,0
920984.0,-0.354,-0.488,-0.188,-50.57,117.96,0
920989.0,0.304,0.312,0.049,45.36,-80.85,0
920994.0,-0.306,-0.382,0.092,-50.08,73.27,0
920999.0,0.393,0.463,0.195,46.54,-63.59,0
921004.0,-0.4,-0.401,-0.286,-39.24,125.6,0
921009.0,0.321,0.41,0.023,51.89,-85.96,0
921014.0,-0.359,-0.502,-0.03,-54.34,94.78,0
921019.0,0.335,0.355,0.066,46.1,-78.91,0
921024.0,-0.479,-0.404,-0.265,-36.44,118.94,0
921029.0,0.285,0.516,0.004,61.06,-89.29,0
921034.0,-0.333,-0.44,-0.133,-50.83,111.79,0
921039.0,0.261,0.439,-0.028,59.11,-96.04,0
921044.0,-0.452,-0.5,-0.26,-43.76,119.88,0
921049.0,0.316,0.444,0.085,53.58,-74.97,0
921054.0,-0.414,-0.416,-0.111,-44.12,105.06,0
921059.0,0.208,0.413,-0.071,61.92,-108.74,0
921064.0,-0.354,-0.495,-0.107,-53.22,106.75,0
921069.0,0.235,0.398,0.116,56.67,-63.7,0
921074.0,-0.426,-0.31,-0.102,-35.33,103.44,0
921079.0,0.359,0.413,-0.023,48.89,-93.64,0
921084.0,-0.469,-0.411,-0.322,-35.84,124.47,0
921089.0,0.378,0.336,0.092,40.78,-76.32,0
921094.0,-0.419,-0.404,-0.099,-43.17,103.36,0
921099.0,0.24,0.468,0.061,62.14,-75.72,0
921104.0,-0.359,-0.358,-0.138,-42.98,110.99,0
921109.0,0.177,0.31,-0.114,55.77,-122.69,0
921114.0,-0.306,-0.361,-0.257,-42.04,130.05,0
921119.0,0.256,0.396,0.094,55.39,-69.77,0
921124.0,-0.385,-0.363,-0.104,-42.29,105.14,0
921129.0,0.247,0.274,-0.066,46.98,-104.96,0
921134.0,-0.481,-0.385,-0.392,-31.81,129.14,0
921139.0,0.194,0.384,-0.059,62.15,-106.84,0
921144.0,-0.421,-0.294,-0.169,-32.91,111.85,0
921149.0,0.189,0.372,0.063,61.77,-71.49,0
921154.0,-0.46,-0.435,-0.389,-35.84,130.26,0
921159.0,0.153,0.367,-0.054,66.11,-109.38,0
921164.0,-0.345,-0.37,-0.08,-46.3,103.11,0
921169.0,0.187,0.355,0.078,60.32,-67.42,0
921174.0,-0.4,-0.399,-0.234,-40.76,120.3,0
921179.0,0.275,0.504,-0.04,61.07,-98.18,0
921184.0,-0.364,-0.504,0.085,-53.48,76.86,0
921189.0,0.175,0.391,0.071,64.25,-68.04,0
921194.0,-0.469,-0.399,-0.188,-38.29,111.84,0
921199.0,0.225,0.343,0.025,56.56,-83.65,0
921204.0,-0.428,-0.234,-0.195,-26.41,114.5,0
921209.0,0.106,0.252,-0.164,52.28,-147.26,0
921214.0,-0.249,-0.339,-0.186,-47.53,126.72,0
921219.0,0.185,0.353,0.126,57.67,-55.75,0
921224.0,-0.407,-0.083,-0.001,-11.53,90.18,0
921229.0,0.225,0.326,-0.155,50.08,-124.45,0
921234.0,-0.515,-0.31,-0.353,-26.45,124.47,0
921239.0,0.256,0.434,-0.011,59.42,-92.42,0
921244.0,-0.424,-0.342,-0.085,-38.33,101.36,0
921249.0,0.012,0.211,-0.025,82.46,-154.31,0
921254.0,-0.436,-0.375,-0.418,-31.86,133.81,0
921259.0,0.144,0.401,-0.059,68.81,-112.22,0
921264.0,-0.22,-0.124,0.176,-23.7,51.37,0
921269.0,0.094,0.298,-0.04,71.16,-112.94,0
921274.0,-0.313,-0.421,-0.277,-45.17,131.42,0
921279.0,0.22,0.453,0.004,64.06,-89.09,0
921284.0,-0.323,-0.334,-0.071,-45.32,102.35,0
921289.0,0.127,0.31,-0.001,67.69,-90.58,0
921294.0,-0.335,-0.397,0.255,-43.3,52.73,0
921299.0,0.185,0.434,0.138,62.07,-53.29,0
921304.0,-0.246,-0.04,-0.066,-8.89,104.98,0
921309.0,0.065,0.269,0.123,62.63,-27.74,0
921314.0,-0.292,-0.32,0.152,-44.2,62.5,0
921319.0,0.168,0.305,0.063,59.54,-69.31,0
921324.0,-0.218,-0.246,0.023,-48.31,84.06,0
921329.0,0.082,0.106,0.205,25.73,-21.73,0
921334.0,-0.254,-0.052,0.135,-10.23,61.94,0
921339.0,0.149,0.087,-0.075,27.56,-116.93,0
921344.0,-0.357,-0.114,-0.032,-17.68,95.19,0
921349.0,0.12,0.085,0.284,15.36,-22.91,0
921354.0,-0.261,-0.095,0.111,-18.52,66.9,0
921359.0,0.194,0.037,-0.107,9.41,-118.78,0
921364.0,-0.249,-0.131,-0.004,-27.74,90.85,0
921369.0,0.465,0.178,0.262,18.45,-60.57,0
921374.0,-0.213,-0.2,0.087,-41.04,67.7,0
921379.0,0.333,0.144,-0.018,23.42,-93.1,0
921384.0,-0.34,-0.253,0.087,-35.79,75.59,0
921389.0,0.417,0.322,0.305,31.91,-53.79,0
921394.0,-0.309,-0.263,-0.059,-39.88,100.77,0
921399.0,0.378,0.168,-0.078,23.55,-101.63,0
921404.0,-0.292,-0.186,0.109,-30.83,69.55,0
921409.0,0.462,0.29,0.255,28.83,-61.13,0
921414.0,-0.297,-0.248,-0.119,-37.84,111.79,0
921419.0,0.343,0.142,-0.087,21.89,-104.32,0
921424.0,-0.251,-0.119,0.162,-21.71,57.26,0
921429.0,0.417,0.233,0.185,27.06,-66.01,0
921434.0,-0.254,-0.172,0.047,-33.64,79.59,0
921439.0,0.357,0.154,0.19,20.85,-61.94,0
921444.0,-0.208,-0.191,0.185,-34.38,48.3,0
921449.0,0.39,0.238,0.044,31.19,-83.54,0
921454.0,-0.299,-0.279,-0.068,-42.31,102.87,0
921459.0,0.259,0.262,0.193,39.06,-53.33,0
921464.0,-0.251,-0.179,0.054,-34.83,77.92,0
921469.0,0.414,0.31,-0.042,36.63,-95.79,0
921474.0,-0.342,-0.275,-0.054,-38.4,98.96,0
921479.0,0.414,0.211,0.253,23.55,-58.64,0
921484.0,-0.242,-0.282,0.078,-47.98,72.17,0
921489.0,0.419,0.343,0.104,38.47,-76.06,0
921494.0,-0.227,-0.236,0.154,-40.69,55.82,0
921499.0,0.388,0.171,0.221,20.92,-60.29,0
921504.0,-0.285,-0.344,-0.044,-50.04,98.86,0
921509.0,0.405,0.484,0.097,49.33,-76.54,0
921514.0,-0.254,-0.272,0.085,-45.5,71.49,0
921519.0,0.496,0.286,0.197,28.16,-68.28,0
921524.0,-0.361,-0.375,-0.078,-45.42,102.16,0
921529.0,0.434,0.386,0.051,41.5,-83.24,0
921534.0,-0.225,-0.215,0.147,-38.62,56.8,0
921539.0,0.362,0.13,0.236,16.77,-56.9,0
921544.0,-0.349,-0.344,-0.037,-44.39,96.08,0
921549.0,0.484,0.374,0.166,36.19,-71.03,0
921554.0,-0.179,-0.298,0.162,-51.03,48.0,0
921559.0,0.366,0.314,0.308,33.31,-49.99,0
921564.0,-0.215,-0.325,0.027,-56.25,82.73,0
921569.0,0.357,0.346,0.039,43.9,-83.7,0
921574.0,-0.392,-0.253,-0.064,-32.47,99.19,0
921579.0,0.414,0.37,0.071,41.32,-80.34,0
921584.0,-0.337,-0.282,-0.006,-39.85,91.03,0
921589.0,0.407,0.267,0.106,32.35,-75.35,0
921594.0,-0.325,-0.308,-0.119,-41.65,110.02,0
921599.0,0.345,0.298,0.097,39.72,-74.31,0
921604.0,-0.309,-0.358,0.109,-47.59,70.58,0
921609.0,0.366,0.477,0.13,50.82,-70.41,0
921614.0,-0.443,-0.397,-0.143,-40.45,107.84,0
921619.0,0.453,0.389,0.262,36.61,-59.93,0
921624.0,-0.385,-0.397,0.109,-44.73,74.22,0
921629.0,0.386,0.343,0.073,41.17,-79.29,0
921634.0,-0.258,-0.296,-0.04,-48.56,98.71,0
921639.0,0.558,0.425,0.087,36.93,-81.11,0
921644.0,-0.34,-0.519,-0.274,-49.91,128.9,0
921649.0,0.4,0.449,-0.023,48.23,-93.27,0
921654.0,-0.313,-0.284,0.154,-39.11,63.79,0
921659.0,0.378,0.326,0.193,37.55,-63.02,0
921664.0,-0.608,-0.449,-0.31,-33.36,117.03,0
921669.0,0.371,0.331,0.075,41.16,-78.53,0
921674.0,-0.388,-0.227,0.13,-28.99,71.41,0
921679.0,0.441,0.396,0.157,40.24,-70.42,0
921684.0,-0.378,-0.377,-0.176,-42.15,114.97,0
921689.0,0.524,0.456,0.147,39.91,-74.33,0
921694.0,-0.29,-0.421,-0.004,-55.45,90.73,0
921699.0,0.4,0.358,0.083,41.2,-78.34,0
921704.0,-0.371,-0.507,-0.162,-51.39,113.55,0
921709.0,0.371,0.475,0.224,47.61,-58.92,0
921714.0,-0.325,-0.301,0.202,-38.14,58.14,0
921719.0,0.407,0.386,0.138,41.95,-71.33,0
921724.0,-0.467,-0.519,-0.236,-44.77,116.82,0
921729.0,0.347,0.408,0.056,49.21,-80.81,0
921734.0,-0.349,-0.334,-0.073,-43.13,101.82,0
921739.0,0.453,0.331,0.159,34.62,-70.63,0
921744.0,-0.369,-0.401,-0.02,-47.4,93.17,0
921749.0,0.412,0.346,0.039,39.86,-84.53,0
921754.0,-0.419,-0.32,-0.214,-34.22,117.1,0
921759.0,0.316,0.429,0.056,53.2,-79.92,0
921764.0,-0.378,-0.37,0.111,-43.21,73.61,0
921769.0,0.364,0.389,0.121,45.38,-71.64,0
921774.0,-0.433,-0.409,-0.296,-37.92,124.32,0
921779.0,0.429,0.449,0.157,44.5,-69.92,0
921784.0,-0.366,-0.428,0.229,-44.74,58.03,0
921789.0,0.283,0.396,0.051,54.03,-79.7,0
921794.0,-0.347,-0.296,-0.322,-32.02,132.87,0
921799.0,0.441,0.379,0.032,40.63,-85.82,0
921804.0,-0.318,-0.406,0.032,-51.78,84.22,0
921809.0,0.472,0.341,0.19,33.82,-68.04,0
921814.0,-0.285,-0.377,-0.054,-52.48,100.73,0
921819.0,0.443,0.477,0.118,46.14,-75.04,0
921824.0,-0.397,-0.404,0.157,-43.4,68.47,0
921829.0,0.309,0.422,0.133,51.46,-66.74,0
921834.0,-0.44,-0.435,-0.178,-42.47,112.06,0
921839.0,0.297,0.381,0.023,52.01,-85.64,0
921844.0,-0.464,-0.473,-0.099,-44.9,102.09,0
921849.0,0.436,0.425,0.104,43.45,-76.57,0
921854.0,-0.383,-0.5,-0.183,-49.65,115.57,0
921859.0,0.426,0.463,0.056,47.11,-82.49,0
921864.0,-0.407,0.18,0.181,22.06,66.05,0
921869.0,0.261,0.494,-0.011,62.12,-92.38,0
921874.0,-0.424,-0.399,-0.353,-35.88,129.82,0
921879.0,0.216,0.346,0.073,56.63,-71.31,0
921884.0,-0.424,-0.401,0.054,-43.23,82.76,0
921889.0,0.225,0.37,-0.006,58.63,-91.54,0
921894.0,-0.381,-0.327,0.011,-40.68,88.39,0
921899.0,0.357,0.391,0.13,45.82,-69.93,0
921904.0,-0.033,0.166,0.126,51.94,14.87,0
921909.0,0.326,0.29,-0.03,41.6,-95.26,0
921914.0,-0.321,-0.263,0.061,-38.81,79.23,0
921919.0,0.319,0.427,-0.056,52.85,-100.03,0
921924.0,-0.469,-0.502,0.075,-46.58,80.88,0
921929.0,0.264,0.331,0.063,50.71,-76.48,0
921934.0,-0.412,-0.265,0.188,-30.35,65.47,0
921939.0,0.268,-0.083,-0.095,-16.26,-109.43,0
921944.0,-0.117,0.113,-0.008,43.97,94.13,0
921949.0,0.271,-0.042,0.173,-7.49,-57.34,0
921954.0,-0.378,0.027,0.145,3.83,69.05,0
921959.0,0.196,-0.174,-0.054,-40.49,-105.35,0
921964.0,-0.426,0.219,0.13,26.14,72.98,0
921969.0,0.218,-0.095,0.154,-19.57,-54.71,0
921974.0,-0.421,-0.033,0.123,-4.26,73.69,0
921979.0,0.187,-0.038,-0.02,-11.28,-96.24,0
921984.0,-0.132,0.176,0.185,37.68,35.34,0
921989.0,0.23,-0.059,0.075,-13.71,-71.86,0
921994.0,-0.242,0.013,0.008,3.02,88.03,0
921999.0,0.201,-0.117,-0.073,-28.55,-109.96,0
922004.0,-0.146,0.118,0.063,36.6,66.52,0
922009.0,0.335,-0.026,0.044,-4.32,-82.49,0
922014.0,-0.22,0.082,-0.025,20.36,96.54,0
922019.0,0.287,-0.188,-0.042,-32.96,-98.31,0
922024.0,-0.11,0.13,0.14,36.16,38.15,0
922029.0,0.23,-0.035,0.188,-6.74,-50.76,0
922034.0,-0.129,0.053,0.044,21.39,71.1,0
922039.0,0.129,-0.126,-0.054,-41.96,-112.63,0
922044.0,-0.148,0.13,0.169,30.08,41.31,0
922049.0,0.287,-0.081,0.085,-15.05,-73.54,0
922054.0,-0.201,0.068,0.039,18.33,78.9,0
922059.0,0.189,-0.114,-0.028,-30.82,-98.3,0
922064.0,-0.167,-0.006,0.037,-2.13,77.53,0
922069.0,0.295,0.068,0.001,12.97,-89.78,0
922074.0,-0.299,0.015,-0.035,2.88,96.64,0
922079.0,0.345,0.018,0.035,2.9,-84.27,0
922084.0,-0.096,0.046,0.245,9.97,21.29,0
922089.0,0.218,-0.162,0.059,-35.66,-74.96,0
922094.0,-0.227,0.022,0.006,5.61,88.51,0
922099.0,0.264,-0.057,0.037,-12.02,-82.0,0
922104.0,-0.163,-0.016,0.099,-4.79,58.6,0
922109.0,0.405,0.13,0.042,17.73,-84.1,0
922114.0,-0.074,-0.102,0.241,-22.09,17.11,0
922119.0,0.357,0.037,0.236,4.91,-56.55,0
922124.0,-0.213,0.02,0.042,5.25,78.89,0
922129.0,0.302,-0.011,-0.02,-2.12,-93.87,0
922134.0,-0.285,-0.002,-0.03,-0.32,96.02,0
922139.0,0.228,-0.09,-0.011,-21.59,-92.73,0
922144.0,-0.218,-0.002,0.097,-0.38,66.01,0
922149.0,0.338,0.08,0.164,12.0,-64.11,0
922154.0,-0.177,-0.03,0.109,-8.3,58.41,0
922159.0,0.364,0.049,0.116,7.26,-72.32,0
922164.0,-0.179,-0.014,0.08,-3.95,65.93,0
922169.0,0.402,0.082,0.023,11.53,-86.78,0
922174.0,-0.292,-0.026,-0.018,-4.99,93.54,0
922179.0,0.386,-0.047,0.159,-6.44,-67.58,0
922184.0,-0.239,-0.047,0.162,-9.26,55.98,0
922189.0,0.331,0.058,0.102,9.56,-72.9,0
922194.0,-0.16,-0.057,0.14,-14.91,48.86,0
922199.0,0.268,0.082,0.104,15.94,-68.8,0
922204.0,-0.227,-0.076,-0.004,-18.44,90.93,0
922209.0,0.414,0.132,0.094,17.31,-77.15,0
922214.0,-0.218,-0.035,0.152,-7.53,55.09,0
922219.0,0.357,0.073,0.116,10.95,-71.99,0
922224.0,-0.306,-0.164,-0.001,-28.22,90.24,0
922229.0,0.395,0.077,0.118,10.63,-73.32,0
922234.0,-0.194,-0.083,0.14,-19.15,54.16,0
922239.0,0.271,0.18,0.13,30.97,-64.28,0
922244.0,-0.263,-0.186,0.001,-35.24,89.76,0
922249.0,0.441,0.159,0.087,19.47,-78.79,0
922254.0,-0.223,-0.081,0.02,-19.84,84.79,0
922259.0,0.328,0.144,0.027,23.68,-85.22,0
922264.0,-0.33,-0.289,-0.028,-41.08,94.78,0
922269.0,0.35,0.132,0.135,19.46,-68.86,0
922274.0,-0.383,-0.121,-0.004,-17.58,90.55,0
922279.0,0.23,0.247,0.099,44.64,-66.65,0
922284.0,-0.333,-0.231,0.14,-32.67,67.18,0
922289.0,0.362,0.168,0.181,22.61,-63.46,0
922294.0,-0.141,-0.095,0.001,-33.94,89.55,0
922299.0,0.429,0.104,-0.02,13.59,-92.73,0
922304.0,-0.239,-0.198,0.02,-39.5,85.16,0
922309.0,0.563,0.173,0.274,15.46,-64.04,0
922314.0,-0.136,-0.128,0.128,-34.49,46.8,0
922319.0,0.347,0.245,-0.004,35.2,-90.61,0
922324.0,-0.349,-0.392,-0.056,-47.91,99.16,0
922329.0,0.45,0.288,0.339,27.08,-53.05,0
922334.0,-0.392,-0.188,0.109,-24.82,74.5,0
922339.0,0.417,0.3,-0.001,35.75,-90.18,0
922344.0,-0.34,-0.219,0.054,-32.53,81.01,0
922349.0,0.393,0.195,0.195,23.94,-63.59,0
922354.0,-0.143,-0.306,-0.013,-64.76,95.28,0
922359.0,0.359,0.283,0.059,37.89,-80.74,0
922364.0,-0.354,-0.327,0.013,-42.71,87.88,0
922369.0,0.467,0.302,0.138,31.85,-73.59,0
922374.0,-0.392,-0.239,-0.116,-30.24,106.49,0
922379.0,0.335,0.324,0.071,43.4,-78.12,0
922384.0,-0.395,-0.277,0.13,-33.66,71.73,0
922389.0,0.369,0.202,0.109,27.7,-73.56,0
922394.0,-0.268,-0.282,0.037,-46.16,82.13,0
922399.0,0.381,0.264,0.157,32.68,-67.63,0
922404.0,-0.33,-0.33,0.051,-44.6,81.15,0
922409.0,0.434,0.329,0.133,35.95,-72.97,0
922414.0,-0.261,-0.344,-0.016,-52.78,93.43,0
922419.0,0.45,0.439,0.176,42.24,-68.66,0
922424.0,-0.254,-0.27,-0.09,-45.07,109.51,0
922429.0,0.508,0.298,0.221,28.25,-66.44,0
922434.0,-0.364,-0.351,-0.037,-43.84,95.84,0
922439.0,0.378,0.18,0.049,25.3,-82.62,0
922444.0,-0.407,-0.291,0.004,-35.6,89.51,0
922449.0,0.402,0.525,0.219,48.9,-61.44,0
922454.0,-0.225,-0.361,0.015,-58.0,86.06,0
922459.0,0.412,0.396,0.15,42.09,-70.05,0
922464.0,-0.306,0.379,0.068,50.38,77.46,0
922469.0,0.419,0.367,0.138,39.77,-71.83,0
922474.0,-0.328,-0.33,-0.054,-44.77,99.34,0
922479.0,0.479,0.377,0.147,36.93,-72.92,0
922484.0,-0.323,-0.452,0.085,-53.52,75.27,0
922489.0,0.501,0.417,0.19,37.93,-69.19,0
922494.0,-0.304,-0.358,-0.054,-49.26,100.07,0
922499.0,0.443,0.386,-0.059,40.83,-97.55,0
922504.0,0.065,0.259,0.085,67.62,-37.35,0
922509.0,0.285,0.317,-0.174,43.51,-121.35,0
922514.0,-0.345,-0.354,0.025,-45.66,85.84,0
922519.0,0.465,0.372,-0.075,38.31,-99.23,0
922524.0,-0.397,-0.476,-0.061,-49.8,98.75,0
922529.0,0.462,0.463,-0.248,41.43,-118.2,0
922534.0,-0.254,-0.473,-0.032,-61.62,97.28,0
922539.0,0.374,-0.387,-0.241,-41.05,-122.79,0
922544.0,0.012,0.221,0.087,68.26,-7.91,0
922549.0,0.503,-0.298,-0.097,-30.23,-100.92,0
922554.0,-0.304,0.348,-0.008,48.86,91.59,0
922559.0,0.275,-0.176,-0.26,-24.97,-133.33,0
922564.0,-0.467,0.18,0.171,19.94,69.87,0
922569.0,0.366,-0.373,0.071,-44.96,-79.1,0
922574.0,-0.479,0.18,0.099,20.25,78.28,0
922579.0,0.34,-0.179,-0.157,-25.51,-114.76,0
922584.0,-0.005,0.281,0.037,82.43,7.13,0
922589.0,0.034,-0.179,-0.152,-48.93,-167.52,0
922594.0,-0.112,0.089,-0.032,37.39,106.09,0
922599.0,0.015,-0.114,-0.138,-39.49,-173.98,0
922604.0,-0.091,0.142,0.133,41.44,34.37,0
922609.0,-0.002,-0.215,-0.143,-56.41,179.1,0
922614.0,-0.064,0.113,-0.08,47.74,141.23,0
922619.0,0.031,-0.198,-0.068,-69.21,-155.4,0
922624.0,0.0,0.358,0.188,62.28,-0.05,0
922629.0,0.07,-0.253,0.025,-73.7,-70.2,0
922634.0,-0.103,0.156,-0.001,56.69,90.71,0
922639.0,0.019,-0.205,-0.126,-58.18,-171.27,0
922644.0,-0.017,0.286,0.13,65.29,7.25,0
922649.0,0.137,-0.255,0.03,-61.29,-77.68,0
922654.0,-0.108,0.161,0.047,53.97,66.58,0
922659.0,0.089,-0.258,-0.121,-59.8,-143.74,0
922664.0,0.05,0.183,0.066,65.61,-37.49,0
922669.0,-0.067,-0.145,-0.042,-61.47,122.12,0
922674.0,-0.057,0.264,0.044,74.68,52.35,0
922679.0,-0.031,-0.212,-0.135,-56.81,167.11,0
922684.0,-0.057,0.149,0.111,50.02,27.25,0
922689.0,0.175,-0.258,-0.064,-54.17,-109.96,0
922694.0,-0.165,0.207,-0.03,50.94,100.31,0
922699.0,0.297,-0.083,0.102,-14.81,-71.1,0
922704.0,-0.014,0.238,0.351,34.12,2.32,0
922709.0,0.091,-0.229,-0.114,-57.52,-141.31,0
922714.0,-0.045,0.137,-0.131,44.8,160.85,0
922719.0,0.106,-0.306,0.104,-64.13,-45.39,0
922724.0,-0.143,0.286,0.231,46.42,31.85,0
922729.0,0.194,-0.289,-0.097,-53.09,-116.57,0
922734.0,-0.057,0.231,0.051,71.54,48.11,0
922739.0,0.165,-0.224,0.049,-52.44,-73.49,0
922744.0,-0.072,0.204,-0.032,68.94,114.33,0
922749.0,0.141,-0.15,-0.133,-37.7,-133.23,0
922754.0,-0.115,0.092,0.159,25.07,35.8,0
922759.0,0.141,-0.114,0.162,-27.99,-41.2,0
922764.0,-0.187,0.147,0.025,37.95,82.35,0
922769.0,0.137,-0.14,-0.092,-40.43,-124.03,0
922774.0,-0.05,0.161,0.26,31.36,10.92,0
922779.0,0.094,-0.172,0.078,-54.67,-50.27,0
922784.0,-0.069,0.173,-0.008,68.05,96.96,0
922789.0,0.194,-0.224,-0.162,-41.6,-129.8,0
922794.0,-0.12,0.214,0.099,54.0,50.29,0
922799.0,0.225,-0.088,-0.049,-20.85,-102.31,0
922804.0,-0.244,0.015,-0.095,3.32,111.2,0
922809.0,0.211,-0.083,0.032,-21.26,-81.31,0
922814.0,-0.23,0.113,0.305,16.53,36.97,0
922819.0,0.187,-0.042,0.042,-12.45,-77.39,0
922824.0,-0.148,0.178,-0.166,38.6,138.31,0
922829.0,0.158,-0.222,-0.025,-54.17,-99.06,0
922834.0,-0.06,-0.004,0.162,-1.33,20.28,0
922839.0,0.242,-0.121,0.054,-26.08,-77.47,0
922844.0,-0.127,0.192,0.063,53.62,63.44,0
922849.0,0.338,-0.052,0.063,-8.58,-79.37,0
922854.0,-0.189,-0.035,0.097,-9.39,62.86,0
922859.0,0.137,-0.133,-0.013,-44.15,-95.54,0
922864.0,-0.148,0.307,0.047,63.17,72.55,0
922869.0,0.225,-0.002,0.03,-0.4,-82.45,0
922874.0,-0.129,-0.069,0.08,-24.31,58.18,0
922879.0,0.223,-0.196,0.059,-40.32,-75.27,0
922884.0,-0.158,0.125,0.059,36.65,69.64,0
922889.0,0.388,-0.011,0.097,-1.6,-75.98,0
922894.0,-0.189,0.092,0.145,21.08,52.55,0
922899.0,0.264,-0.126,0.128,-23.29,-64.09,0
922904.0,-0.211,0.049,0.068,12.41,72.06,0
922909.0,0.158,0.015,-0.075,4.94,-115.52,0
922914.0,-0.134,0.013,-0.006,5.44,92.59,0
922919.0,0.144,-0.028,0.032,-10.73,-77.36,0
922924.0,-0.105,0.027,-0.006,14.44,93.3,0
922929.0,0.35,-0.023,-0.028,-3.77,-94.51,0
922934.0,-0.194,0.089,0.171,19.07,48.55,0
922939.0,0.228,-0.119,0.066,-26.65,-73.89,0
922944.0,-0.072,0.07,0.02,43.32,74.21,0
922949.0,0.285,0.013,0.147,2.28,-62.7,0
922954.0,-0.141,0.149,0.221,29.62,32.51,0
922959.0,0.319,-0.021,0.193,-3.19,-58.84,0
922964.0,-0.172,-0.133,0.042,-36.94,76.35,0
922969.0,0.299,-0.004,0.054,-0.75,-79.82,0
922974.0,-0.184,0.168,0.147,35.54,51.38,0
922979.0,0.331,-0.061,0.075,-10.27,-77.16,0
922984.0,-0.151,-0.095,-0.066,-30.0,113.63,0
922989.0,0.352,0.063,0.121,9.61,-71.06,0
922994.0,-0.132,0.106,0.31,17.5,22.99,0
922999.0,0.388,0.061,0.188,8.01,-64.17,0
923004.0,-0.196,-0.09,-0.121,-21.37,121.66,0
923009.0,0.355,-0.026,-0.011,-4.12,-91.75,0
923014.0,-0.155,-0.066,0.272,-11.95,29.78,0
923019.0,0.252,0.073,0.133,14.32,-62.17,0
923024.0,-0.23,-0.083,-0.14,-17.14,121.39,0
923029.0,0.299,0.109,0.162,17.69,-61.66,0
923034.0,-0.27,-0.119,0.133,-21.54,63.84,0
923039.0,0.326,0.085,-0.066,14.28,-101.44,0
923044.0,-0.297,-0.093,-0.178,-14.97,121.02,0
923049.0,0.35,0.101,0.121,15.32,-70.94,0
923054.0,-0.182,-0.042,0.2,-8.9,42.29,0
923059.0,0.275,-0.026,0.02,-5.28,-85.79,0
923064.0,-0.292,0.271,-0.001,42.91,90.25,0
923069.0,0.352,0.121,0.118,17.97,-71.41,0
923074.0,-0.306,-0.078,0.142,-13.04,65.07,0
923079.0,0.338,0.118,0.133,18.03,-68.54,0
923084.0,-0.246,-0.222,0.023,-41.88,84.75,0
923089.0,0.338,0.14,0.114,21.4,-71.4,0
923094.0,-0.108,-0.078,0.059,-32.56,61.43,0
923099.0,0.426,0.173,-0.277,18.82,-122.98,0
923104.0,-0.014,0.24,-0.025,83.13,150.61,0
923109.0,0.46,0.233,-0.138,25.89,-106.68,0
923114.0,-0.218,-0.133,-0.066,-30.37,106.85,0
923119.0,0.364,0.147,-0.111,21.09,-107.01,0
923124.0,-0.4,-0.155,0.236,-18.45,59.47,0
923129.0,0.295,0.204,-0.023,34.66,-94.43,0
923134.0,-0.381,-0.176,0.071,-24.5,79.5,0
923139.0,0.299,0.195,-0.286,25.18,-133.7,0
923144.0,0.07,0.221,0.152,52.91,-24.61,0
923149.0,0.393,-0.354,-0.109,-40.93,-105.51,0
923154.0,-0.285,0.326,-0.085,47.68,106.63,0
923159.0,0.331,-0.222,-0.327,-25.51,-134.68,0
923164.0,-0.304,0.257,0.044,39.92,81.72,0
923169.0,0.469,-0.387,-0.119,-38.64,-104.18,0
923174.0,-0.175,0.156,-0.013,41.77,94.34,0
923179.0,0.443,-0.27,-0.377,-24.87,-130.41,0
923184.0,0.07,0.386,-0.071,75.6,-135.46,0
923189.0,-0.213,-0.334,-0.226,-47.1,136.75,0
923194.0,-0.007,0.271,0.068,75.83,5.88,0
923199.0,-0.182,-0.325,-0.234,-47.66,142.1,0
923204.0,-0.053,0.286,-0.073,72.51,144.31,0
923209.0,-0.246,-0.246,-0.296,-32.56,140.2,0
923214.0,0.007,0.255,0.063,75.93,-6.61,0
923219.0,-0.151,-0.184,-0.006,-50.6,92.31,0
923224.0,0.082,0.14,0.087,49.45,-43.05,0
923229.0,-0.218,-0.327,-0.348,-38.53,148.0,0
923234.0,-0.093,0.271,-0.217,48.99,156.73,0
923239.0,-0.062,-0.176,-0.229,-36.66,164.81,0
923244.0,0.019,0.257,0.114,65.84,-9.64,0
923249.0,-0.136,-0.327,-0.257,-48.32,152.1,0
923254.0,0.046,0.2,-0.205,43.56,-167.43,0
923259.0,-0.191,-0.243,-0.042,-51.17,102.37,0
923264.0,0.038,0.293,0.303,43.82,-7.24,0
923269.0,-0.273,-0.358,-0.214,-45.93,128.16,0
923274.0,-0.055,0.293,-0.138,63.15,158.27,0
923279.0,-0.031,-0.265,-0.162,-58.15,169.16,0
923284.0,0.017,0.274,0.092,71.12,-10.41,0
923289.0,-0.199,-0.392,-0.332,-45.39,149.09,0
923294.0,0.05,0.355,0.011,81.74,-78.03,0
923299.0,-0.17,-0.243,-0.193,-43.45,138.63,0
923304.0,-0.086,0.279,-0.205,51.43,157.21,0
923309.0,-0.191,-0.342,-0.229,-48.88,140.08,0
923314.0,-0.074,0.267,0.241,46.64,17.11,0
923319.0,-0.143,-0.21,-0.181,-42.28,141.57,0
923324.0,-0.081,0.118,-0.298,20.92,164.76,0
923329.0,-0.069,-0.294,-0.169,-58.14,157.7,0
923334.0,0.117,0.226,0.315,33.91,-20.47,0
923339.0,-0.009,-0.148,-0.047,-72.09,168.62,0
923344.0,0.163,0.343,0.08,62.11,-63.82,0
923349.0,-0.069,-0.354,-0.099,-71.08,145.14,0
923354.0,-0.026,0.132,0.044,68.8,30.63,0
923359.0,-0.086,-0.275,-0.279,-43.24,162.86,0
923364.0,-0.053,0.274,0.066,72.91,38.61,0
923369.0,-0.079,-0.361,-0.028,-76.96,109.3,0
923374.0,-0.043,0.156,0.006,74.51,82.17,0
923379.0,-0.17,-0.16,-0.289,-25.49,149.52,0
923384.0,0.015,0.389,0.104,74.87,-7.95,0
923389.0,-0.103,-0.203,-0.016,-62.85,98.65,0
923394.0,-0.048,0.046,-0.128,18.7,159.58,0
923399.0,-0.043,-0.318,-0.382,-39.57,173.59,0
923404.0,-0.053,0.238,0.166,53.75,17.52,0
923409.0,0.019,-0.15,0.013,-81.16,-55.88,0
923414.0,-0.069,0.156,-0.131,46.62,152.05,0
923419.0,0.022,-0.227,-0.147,-56.69,-171.62,0
923424.0,-0.096,0.264,0.205,49.47,25.04,0
923429.0,-0.036,-0.21,-0.231,-41.91,171.21,0
923434.0,-0.122,0.154,-0.224,31.13,151.43,0
923439.0,0.01,-0.219,0.066,-73.15,-8.42,0
923444.0,0.029,0.36,0.466,37.65,-3.55,0
923449.0,0.07,-0.401,-0.08,-75.17,-139.08,0
923454.0,-0.06,0.147,-0.358,22.03,170.53,0
923459.0,0.034,-0.217,-0.178,-50.08,-169.31,0
923464.0,0.019,0.312,0.375,39.76,-2.95,0
923469.0,0.144,-0.318,-0.042,-64.75,-106.27,0
923474.0,-0.067,0.092,-0.052,47.38,127.63,0
923479.0,0.079,-0.138,-0.028,-58.73,-109.23,0
923484.0,-0.053,0.24,0.181,51.93,16.21,0
923489.0,0.034,-0.193,-0.08,-65.73,-157.24,0
923494.0,-0.177,0.058,-0.03,17.98,99.62,0
923499.0,0.046,-0.179,-0.119,-54.59,-158.95,0
923504.0,-0.158,0.197,-0.035,50.65,102.43,0
923509.0,0.122,-0.172,-0.08,-49.55,-123.29,0
923514.0,-0.041,0.207,0.142,54.39,15.89,0
923519.0,0.125,-0.255,-0.049,-62.31,-111.52,0
923524.0,-0.036,0.2,-0.09,64.14,158.3,0
923529.0,0.012,-0.224,-0.095,-66.95,-172.7,0
923534.0,-0.115,0.228,0.135,52.16,40.33,0
923539.0,0.161,-0.241,0.004,-56.32,-88.75,0
923544.0,-0.115,0.238,0.075,60.0,56.72,0
923549.0,0.235,-0.229,0.004,-44.29,-89.14,0
923554.0,-0.211,0.147,0.133,30.54,57.76,0
923559.0,0.113,-0.174,-0.056,-54.09,-116.57,0
923564.0,-0.002,0.161,-0.004,88.47,148.67,0
923569.0,0.223,-0.131,0.013,-30.39,-86.64,0
923574.0,-0.134,0.156,0.102,42.93,52.79,0
923579.0,0.173,-0.186,-0.035,-46.57,-101.4,0
923584.0,0.01,0.197,0.231,40.46,-2.41,0
923589.0,0.137,-0.174,0.099,-45.85,-54.0,0
923594.0,-0.139,0.207,-0.013,56.02,95.46,0
923599.0,0.062,-0.188,-0.102,-57.62,-148.5,0
923604.0,-0.055,0.219,0.202,46.22,15.19,0
923609.0,0.031,-0.239,-0.02,-81.1,-123.15,0
923614.0,-0.177,0.202,-0.217,35.81,140.76,0
923619.0,0.22,-0.198,-0.099,-39.3,-114.28,0
923624.0,-0.043,0.25,0.147,58.46,16.27,0
923629.0,0.252,-0.246,-0.044,-43.9,-100.0,0
923634.0,-0.182,0.003,-0.169,0.74,132.89,0
923639.0,0.204,-0.088,0.013,-23.27,-86.32,0
923644.0,-0.254,0.286,0.135,44.83,61.94,0
923649.0,0.065,-0.033,0.023,-25.48,-70.72,0
923654.0,-0.323,-0.042,-0.011,-7.46,91.92,0
923659.0,0.043,-0.157,-0.099,-55.4,-156.49,0
923664.0,-0.177,0.434,0.164,60.94,47.2,0
923669.0,0.192,-0.133,-0.061,-33.52,-107.69,0
923674.0,-0.1,-0.006,-0.085,-2.78,130.28,0
923679.0,0.321,-0.121,-0.119,-19.52,-110.28,0
923684.0,0.012,0.176,0.157,48.16,-4.43,0
923689.0,0.249,-0.004,0.269,-0.62,-42.78,0
923694.0,-0.12,-0.038,0.178,-9.91,33.84,0
923699.0,0.106,-0.176,-0.181,-40.11,-149.74,0
923704.0,0.12,0.365,0.205,56.97,-30.36,0
923709.0,0.304,0.03,0.006,5.54,-88.89,0
923714.0,-0.16,-0.061,-0.178,-14.37,138.08,0
923719.0,0.273,-0.15,-0.411,-16.92,-146.38,0
923724.0,-0.069,0.207,0.066,65.2,46.49,0
923729.0,0.299,-0.081,-0.052,-14.86,-99.77,0
923734.0,-0.139,0.03,-0.047,11.41,108.63,0
923739.0,0.314,-0.16,-0.353,-18.67,-138.38,0
923744.0,0.24,0.262,0.071,46.35,-73.59,0
923749.0,0.256,-0.38,-0.071,-55.01,-105.42,0
923754.0,-0.067,0.425,0.037,79.79,61.03,0
923759.0,0.204,-0.282,-0.313,-37.06,-146.91,0
923764.0,-0.122,0.305,-0.111,61.55,132.42,0
923769.0,0.355,-0.373,-0.274,-39.75,-127.72,0
923774.0,-0.187,0.341,0.109,57.63,59.74,0
923779.0,0.299,-0.356,-0.131,-47.46,-113.56,0
923784.0,0.089,0.298,-0.169,57.35,-152.28,0
923789.0,0.345,-0.382,-0.344,-38.14,-134.89,0
923794.0,-0.167,0.326,0.037,62.28,77.53,0
923799.0,-0.345,-0.277,-0.159,-36.11,114.81,0
923804.0,0.165,0.255,-0.049,55.88,-106.56,0
923809.0,-0.378,-0.315,-0.224,-35.65,120.64,0
923814.0,0.185,0.36,-0.078,60.91,-112.89,0
923819.0,-0.33,-0.349,-0.265,-39.49,128.71,0
923824.0,0.175,0.281,0.188,47.58,-42.96,0
923829.0,-0.366,-0.306,-0.071,-39.34,100.93,0
923834.0,0.108,0.329,-0.135,62.24,-141.44,0
923839.0,-0.366,-0.222,-0.348,-23.7,133.58,0
923844.0,0.177,0.197,0.039,47.34,-77.47,0
923849.0,-0.39,-0.394,-0.248,-40.46,122.43,0
923854.0,0.079,0.379,-0.145,66.46,-151.35,0
923859.0,-0.246,-0.387,-0.363,-41.43,145.81,0
923864.0,0.048,0.343,0.104,71.53,-24.78,0
923869.0,-0.249,-0.44,-0.042,-60.15,99.58,0
923874.0,0.117,0.341,-0.085,66.94,-125.91,0
923879.0,-0.366,-0.289,-0.351,-29.67,133.78,0
923884.0,0.11,0.226,0.001,63.97,-89.42,0
923889.0,-0.4,-0.337,-0.269,-34.94,123.98,0
923894.0,0.084,0.314,-0.075,70.25,-131.96,0
923899.0,-0.321,-0.26,-0.298,-30.72,132.92,0
923904.0,0.055,0.374,0.004,81.59,-86.36,0
923909.0,-0.33,-0.428,-0.305,-43.56,132.76,0
923914.0,0.007,0.293,-0.119,67.92,-176.46,0
923919.0,-0.333,-0.253,-0.296,-29.61,131.64,0
923924.0,0.141,0.257,0.061,59.07,-66.68,0
923929.0,-0.23,-0.198,-0.068,-39.55,106.56,0
923934.0,0.113,0.113,-0.123,34.15,-137.59,0
923939.0,-0.132,-0.279,-0.298,-40.6,156.2,0
923944.0,0.048,0.231,0.001,78.23,-88.67,0
923949.0,-0.285,-0.21,-0.092,-35.04,107.95,0
923954.0,0.046,0.324,0.123,67.92,-20.33,0
923959.0,-0.227,-0.176,-0.152,-32.82,123.79,0
923964.0,0.091,0.195,0.094,56.01,-43.97,0
923969.0,-0.237,-0.361,-0.241,-46.89,135.46,0
923974.0,0.129,0.372,-0.042,69.9,-107.97,0
923979.0,-0.251,-0.279,-0.291,-36.0,139.19,0
923984.0,0.125,0.29,0.015,66.62,-82.92,0
923989.0,-0.232,-0.332,-0.341,-38.82,145.78,0
923994.0,-0.026,0.195,-0.178,47.19,171.65,0
923999.0,-0.141,-0.215,-0.138,-47.43,134.31,0
924004.0,0.026,0.329,0.128,68.32,-11.69,0
924009.0,-0.27,-0.411,-0.279,-46.61,135.9,0
924014.0,-0.005,0.3,-0.04,82.43,173.33,0
924019.0,-0.239,-0.215,-0.042,-41.47,99.95,0
924024.0,0.05,0.31,0.051,76.91,-44.46,0
924029.0,-0.333,-0.298,-0.471,-27.38,144.74,0
924034.0,-0.033,0.142,-0.214,33.22,171.15,0
924039.0,-0.187,-0.179,-0.222,-31.68,139.9,0
924044.0,-0.007,0.154,-0.119,52.36,176.61,0
924049.0,-0.337,-0.284,-0.324,-31.25,133.88,0
924054.0,-0.064,0.264,0.047,73.24,54.14,0
924059.0,-0.108,-0.346,-0.109,-66.15,135.38,0
924064.0,-0.014,0.271,-0.073,74.65,169.0,0
924069.0,-0.155,-0.38,-0.126,-62.24,128.97,0
924074.0,0.194,0.389,0.351,44.12,-28.96,0
924079.0,0.026,-0.229,-0.03,-80.09,-138.56,0
924084.0,0.108,0.233,-0.186,47.34,-149.83,0
924089.0,-0.146,-0.416,-0.135,-64.42,132.86,0
924094.0,-0.019,0.331,0.185,60.62,5.85,0
924099.0,-0.175,-0.258,-0.243,-40.74,144.31,0
924104.0,-0.175,0.223,-0.164,43.0,133.22,0
924109.0,-0.155,-0.222,-0.152,-45.57,134.38,0
924114.0,-0.014,0.149,0.025,79.08,29.55,0
924119.0,-0.194,-0.179,-0.348,-24.15,150.92,0
924124.0,0.048,0.235,-0.133,59.02,-160.13,0
924129.0,-0.096,-0.368,-0.147,-64.48,147.02,0
924134.0,-0.019,0.283,-0.023,84.02,140.23,0
924139.0,-0.019,-0.231,-0.255,-42.14,175.74,0
924144.0,0.125,0.276,0.193,50.27,-32.91,0
924149.0,-0.256,-0.33,0.039,-51.84,81.25,0
924154.0,-0.017,0.149,-0.068,64.78,166.34,0
924159.0,-0.1,-0.184,-0.083,-54.68,129.47,0
924164.0,-0.06,0.372,0.2,60.72,16.63,0
924169.0,-0.043,-0.483,-0.222,-64.95,169.03,0
924174.0,0.003,0.245,-0.126,62.82,-178.84,0
924179.0,-0.096,-0.282,-0.174,-54.87,151.17,0
924184.0,0.055,0.343,0.006,80.81,-83.9,0
924189.0,-0.091,-0.169,-0.224,-35.0,157.92,0
924194.0,-0.033,0.154,0.001,77.77,88.08,0
924199.0,-0.091,-0.253,-0.126,-58.48,144.17,0
924204.0,-0.093,0.231,0.042,66.11,65.84,0
924209.0,-0.072,-0.313,-0.111,-67.05,147.25,0
924214.0,-0.091,0.324,0.138,63.03,33.43,0
924219.0,0.005,-0.217,-0.152,-54.97,-178.14,0
924224.0,0.094,0.231,0.073,62.78,-52.05,0
924229.0,0.041,-0.339,0.006,-83.06,-81.78,0
924234.0,-0.06,0.171,-0.018,69.94,106.81,0
924239.0,0.036,-0.246,-0.313,-38.0,-173.42,0
924244.0,-0.076,0.319,0.035,75.27,65.63,0
924249.0,0.015,-0.272,-0.018,-85.14,-141.16,0
924254.0,-0.105,0.082,0.063,33.8,58.93,0
924259.0,-0.033,-0.174,-0.166,-45.7,168.67,0
924264.0,0.005,0.482,0.255,62.13,-1.11,0
924269.0,-0.055,-0.339,0.111,-69.91,26.27,0
924274.0,-0.151,0.202,-0.04,52.35,104.72,0
924279.0,-0.017,-0.239,-0.365,-33.13,177.4,0
924284.0,-0.086,0.326,-0.044,73.48,117.28,0
924289.0,-0.024,-0.272,-0.107,-68.13,167.43,0
924294.0,-0.153,0.08,-0.001,27.54,90.48,0
924299.0,0.05,-0.136,-0.102,-50.05,-153.65,0
924304.0,0.393,0.427,0.027,47.32,-86.0,0
924309.0,0.146,-0.102,-0.04,-34.0,-105.15,0
924314.0,-0.132,0.022,0.13,6.88,45.24,0
924319.0,0.098,-0.287,-0.075,-66.6,-127.52,0
924324.0,-0.064,0.331,0.049,76.26,52.77,0
924329.0,0.074,-0.294,-0.238,-49.63,-162.67,0
924334.0,-0.053,0.176,0.071,63.39,36.66,0
924339.0,-0.007,-0.236,0.056,-76.52,7.13,0
924344.0,0.299,0.322,0.133,44.48,-66.08,0
924349.0,0.05,0.027,-0.36,4.26,-172.03,0
924354.0,-0.134,0.123,-0.032,41.73,103.6,0
924359.0,0.11,-0.492,0.094,-73.57,-49.41,0
924364.0,-0.1,0.508,0.264,60.91,20.79,0
924369.0,0.029,-0.385,-0.279,-53.9,-174.09,0
924374.0,-0.045,0.468,-0.042,82.47,132.8,0
924379.0,0.12,-0.533,-0.02,-77.15,-99.67,0
924384.0,0.201,0.42,0.039,63.96,-78.92,0
924389.0,0.129,-0.373,-0.384,-42.58,-161.39,0
924394.0,-0.086,0.456,0.025,78.88,73.76,0
924399.0,-0.433,-0.471,-0.013,-47.37,91.75,0
924404.0,0.266,0.314,0.011,49.76,-87.7,0
924409.0,-0.325,-0.31,-0.257,-36.8,128.35,0
924414.0,0.398,0.494,0.102,50.28,-75.66,0
924419.0,-0.421,-0.437,-0.19,-43.41,114.33,0
924424.0,0.196,0.331,-0.126,54.84,-122.62,0
924429.0,-0.311,-0.342,-0.145,-44.86,114.98,0
924434.0,0.249,0.537,0.13,62.36,-62.37,0
924439.0,-0.428,-0.519,-0.135,-49.1,107.53,0
924444.0,0.28,0.35,0.018,51.28,-86.35,0
924449.0,-0.44,-0.315,-0.08,-35.15,100.33,0
924454.0,0.304,0.386,-0.064,51.18,-101.79,0
924459.0,-0.424,-0.406,-0.26,-39.26,121.53,0
924464.0,0.326,0.396,0.083,49.67,-75.79,0
924469.0,-0.302,-0.452,-0.097,-54.96,107.84,0
924474.0,0.393,0.504,0.171,49.61,-66.46,0
924479.0,-0.364,-0.416,-0.071,-48.29,101.0,0
924484.0,0.189,0.36,0.032,61.92,-80.33,0
924489.0,-0.407,-0.435,-0.207,-43.61,116.99,0
924494.0,0.177,0.449,-0.042,67.89,-103.32,0
924499.0,-0.431,-0.38,-0.241,-37.59,119.19,0
924504.0,0.204,0.295,0.02,55.27,-84.32,0
924509.0,-0.323,-0.368,-0.114,-47.05,109.41,0
924514.0,0.201,0.379,-0.025,61.85,-97.14,0
924519.0,-0.378,-0.337,-0.293,-35.13,127.81,0
924524.0,0.156,0.281,-0.083,57.88,-117.96,0
924529.0,-0.34,-0.392,-0.176,-45.68,117.39,0
924534.0,0.223,0.403,0.094,59.01,-67.02,0
924539.0,-0.256,-0.287,-0.123,-45.23,115.73,0
924544.0,0.287,0.226,-0.006,38.15,-91.21,0
924549.0,-0.416,-0.44,-0.219,-43.06,117.76,0
924554.0,0.35,0.365,0.173,43.05,-63.61,0
924559.0,-0.34,-0.272,-0.049,-38.4,98.23,0
924564.0,0.175,0.405,-0.047,65.93,-104.97,0
924569.0,-0.335,-0.452,-0.341,-43.37,135.53,0
924574.0,0.199,0.42,0.092,62.43,-65.15,0
924579.0,-0.282,-0.392,-0.085,-53.04,106.77,0
924584.0,0.163,0.307,-0.03,61.66,-100.43,0
924589.0,-0.397,-0.33,-0.375,-31.11,133.33,0
924594.0,0.268,0.286,0.063,46.02,-76.71,0
924599.0,-0.313,-0.308,-0.052,-44.12,99.34,0
924604.0,0.12,0.271,0.133,56.6,-42.07,0
924609.0,-0.256,-0.373,-0.166,-50.67,123.03,0
924614.0,0.22,0.482,0.102,63.27,-65.24,0
924619.0,-0.335,-0.478,-0.296,-46.93,131.44,0
924624.0,0.173,0.353,-0.04,63.35,-102.92,0
924629.0,-0.361,-0.387,-0.133,-45.15,110.2,0
924634.0,0.177,0.307,-0.061,58.6,-109.02,0
924639.0,-0.325,-0.31,-0.401,-31.01,140.94,0
924644.0,0.182,0.3,-0.044,58.01,-103.69,0
924649.0,-0.246,-0.361,-0.097,-53.71,111.49,0
924654.0,0.206,0.403,0.197,54.7,-46.22,0
924659.0,-0.285,-0.27,-0.195,-38.0,124.43,0
924664.0,0.132,0.226,-0.138,49.83,-136.26,0
924669.0,-0.414,-0.358,-0.301,-35.01,125.98,0
924674.0,0.058,0.393,0.051,78.9,-48.27,0
924679.0,-0.337,-0.354,-0.143,-43.99,112.9,0
924684.0,0.072,0.374,-0.188,61.72,-159.05,0
924689.0,-0.354,-0.447,-0.504,-35.96,144.91,0
924694.0,0.161,0.326,0.042,63.05,-75.4,0
924699.0,-0.225,-0.282,-0.095,-49.1,112.82,0
924704.0,0.137,0.223,-0.08,54.66,-120.44,0
924709.0,-0.306,-0.375,-0.415,-36.0,143.6,0
924714.0,0.139,0.329,-0.037,66.36,-104.98,0
924719.0,-0.297,-0.258,0.097,-39.55,71.92,0
924724.0,0.18,0.314,0.293,42.44,-31.51,0
924729.0,-0.373,-0.389,-0.427,-34.46,138.87,0
924734.0,0.055,0.336,-0.171,61.83,-162.13,0
924739.0,-0.175,-0.2,-0.049,-47.84,105.72,0
924744.0,0.182,0.245,0.188,43.12,-44.11,0
924749.0,-0.337,-0.38,-0.463,-33.53,143.94,0
924754.0,0.074,0.31,-0.322,43.13,-167.0,0
924759.0,-0.232,-0.227,-0.248,-33.72,136.89,0
924764.0,-0.017,0.204,0.106,62.19,8.86,0
924769.0,-0.455,-0.423,-0.205,-40.3,114.24,0
924774.0,0.036,0.341,-0.032,81.9,-131.93,0
924779.0,-0.287,-0.258,-0.305,-31.59,136.76,0
924784.0,0.108,0.312,0.109,63.84,-44.75,0
924789.0,-0.084,-0.342,0.032,-75.3,68.92,0
924794.0,0.132,0.286,0.13,57.01,-45.31,0
924799.0,-0.105,-0.289,-0.396,-35.17,165.14,0
924804.0,0.117,0.24,-0.133,53.55,-138.54,0
924809.0,-0.203,-0.325,-0.085,-55.84,112.7,0
924814.0,0.072,0.367,0.188,61.28,-20.97,0
924819.0,-0.381,-0.308,-0.277,-33.22,126.01,0
924824.0,0.046,0.319,0.078,74.23,-30.42,0
924829.0,-0.352,-0.382,-0.257,-41.25,126.2,0
924834.0,0.05,0.314,0.078,73.58,-32.98,0
924839.0,-0.237,-0.236,-0.329,-30.22,144.27,0
924844.0,0.012,0.238,-0.15,57.72,-175.37,0
924849.0,-0.167,-0.318,-0.236,-47.67,144.64,0
924854.0,-0.014,0.188,-0.092,63.54,171.25,0
924859.0,-0.187,-0.15,-0.26,-25.13,144.32,0
924864.0,-0.019,0.341,0.169,63.52,6.42,0
924869.0,-0.268,-0.272,-0.176,-40.32,123.3,0
924874.0,0.012,0.223,0.104,64.88,-6.65,0
924879.0,-0.256,-0.33,-0.14,-48.47,118.7,0
924884.0,0.175,0.346,0.157,55.8,-48.14,0
924889.0,-0.177,-0.318,-0.181,-51.46,135.61,0
924894.0,0.084,0.331,0.044,74.01,-62.23,0
924899.0,0.046,-0.265,-0.131,-62.43,-160.73,0
924904.0,0.481,0.302,0.178,30.51,-69.68,0
924909.0,-0.177,-0.272,-0.243,-42.14,143.94,0
924914.0,-0.081,0.267,-0.164,55.51,153.66,0
924919.0,-0.246,-0.157,0.15,-28.61,58.75,0
924924.0,-0.021,0.137,0.279,26.14,4.39,0
924929.0,-0.275,-0.236,-0.006,-40.64,91.26,0
924934.0,-0.062,0.159,0.178,40.07,19.2,0
924939.0,-0.136,-0.215,0.14,-47.69,44.24,0
924944.0,0.383,0.346,0.085,41.36,-77.51,0
924949.0,-0.096,-0.308,-0.085,-67.44,131.66,0
924954.0,0.005,0.245,0.073,73.38,-3.88,0
924959.0,-0.136,-0.377,0.027,-69.78,78.61,0
924964.0,-0.069,0.247,0.214,47.7,17.92,0
924969.0,-0.143,-0.246,0.068,-57.13,64.59,0
924974.0,0.024,0.37,0.087,76.23,-15.43,0
924979.0,-0.151,-0.325,-0.219,-50.69,145.49,0
924984.0,0.369,0.389,0.018,46.46,-87.23,0
924989.0,-0.029,-0.272,0.097,-69.64,16.43,0
924994.0,-0.053,0.362,0.135,68.18,21.23,0
924999.0,-0.096,-0.366,-0.138,-65.36,145.24,0
925004.0,0.026,0.286,0.078,73.96,-18.82,0
925009.0,-0.383,-0.354,-0.064,-42.33,99.42,0
925014.0,0.297,0.362,0.004,50.65,-89.32,0
925019.0,-0.404,-0.332,-0.126,-38.09,107.27,0
925024.0,0.438,0.362,0.013,39.57,-88.29,0
925029.0,-0.261,-0.313,-0.023,-50.08,95.0,0
925034.0,0.343,0.353,0.14,43.63,-67.77,0
925039.0,-0.352,-0.421,-0.023,-50.03,93.71,0
925044.0,0.412,0.456,0.226,44.12,-61.23,0
925049.0,-0.438,-0.394,0.027,-41.94,86.41,0
925054.0,0.366,0.298,0.099,38.1,-74.84,0
925059.0,-0.457,-0.404,-0.104,-40.74,102.84,0
925064.0,0.479,0.518,0.135,46.14,-74.24,0
925069.0,-0.385,-0.289,-0.116,-35.67,106.78,0
925074.0,0.417,0.37,0.154,39.74,-69.68,0
925079.0,-0.347,-0.416,-0.107,-48.88,107.08,0
925084.0,0.417,0.401,-0.016,43.85,-92.15,0
925089.0,-0.361,-0.389,-0.181,-43.94,116.59,0
925094.0,0.287,0.48,0.14,56.31,-64.04,0
925099.0,-0.474,-0.488,0.011,-45.81,88.71,0
925104.0,0.39,0.506,0.099,51.47,-75.73,0
925109.0,-0.479,-0.38,-0.078,-38.07,99.24,0
925114.0,0.443,0.413,0.157,41.28,-70.52,0
925119.0,-0.392,-0.555,-0.071,-54.28,100.21,0
925124.0,0.501,0.492,0.145,43.33,-73.87,0
925129.0,-0.302,-0.306,-0.107,-43.7,109.48,0
925134.0,0.491,0.444,0.066,41.85,-82.37,0
925139.0,-0.371,-0.524,-0.166,-52.17,114.17,0
925144.0,0.335,0.391,0.044,49.14,-82.49,0
925149.0,-0.328,-0.456,-0.037,-54.14,96.47,0
925154.0,0.374,0.571,0.221,52.72,-59.35,0
925159.0,-0.416,-0.459,-0.016,-47.76,92.15,0
925164.0,0.388,0.326,0.114,38.91,-73.68,0
925169.0,-0.397,-0.397,-0.119,-43.73,106.62,0
925174.0,0.287,0.508,-0.023,60.44,-94.54,0
925179.0,-0.342,-0.399,-0.243,-43.55,125.39,0
925184.0,0.319,0.25,0.02,38.04,-86.36,0
925189.0,-0.383,-0.332,-0.193,-37.75,116.73,0
925194.0,0.422,0.358,0.085,39.74,-78.61,0
925199.0,-0.404,-0.298,-0.092,-35.73,102.85,0
925204.0,0.292,0.346,0.178,45.27,-58.61,0
925209.0,-0.381,-0.43,-0.059,-48.17,98.78,0
925214.0,0.326,0.413,0.059,51.26,-79.81,0
925219.0,-0.414,-0.466,-0.121,-47.22,106.29,0
925224.0,0.28,0.403,0.173,50.72,-58.24,0
925229.0,-0.282,-0.37,-0.023,-52.58,94.62,0
925234.0,0.374,0.432,-0.02,49.08,-93.13,0
925239.0,-0.328,-0.425,-0.155,-49.57,115.23,0
925244.0,0.366,0.393,0.154,44.7,-67.16,0
925249.0,-0.306,-0.356,0.004,-49.28,89.34,0
925254.0,0.412,0.429,0.004,46.18,-89.51,0
925259.0,-0.426,-0.524,-0.224,-47.41,117.73,0
925264.0,0.28,0.379,0.205,47.53,-53.87,0
925269.0,-0.416,-0.332,-0.025,-38.51,93.47,0
925274.0,0.254,0.449,-0.143,57.01,-119.3,0
925279.0,-0.448,-0.466,-0.322,-40.21,125.74,0
925284.0,0.225,0.293,-0.052,51.73,-102.89,0
925289.0,-0.352,-0.296,-0.178,-36.89,116.9,0
925294.0,0.273,0.456,0.097,57.55,-70.47,0
925299.0,-0.424,-0.389,-0.205,-39.62,115.8,0
925304.0,0.206,0.353,-0.083,57.81,-111.86,0
925309.0,-0.409,-0.492,-0.087,-49.64,102.06,0
925314.0,0.299,0.496,0.217,53.33,-54.12,0
925319.0,-0.397,-0.375,-0.064,-42.99,99.09,0
925324.0,0.362,0.31,-0.126,38.96,-109.18,0
925329.0,-0.304,-0.425,-0.229,-48.2,126.97,0
925334.0,0.402,0.444,0.078,47.27,-79.07,0
925339.0,-0.337,-0.385,-0.145,-46.33,113.24,0
925344.0,0.254,0.379,0.071,55.19,-74.47,0
925349.0,-0.606,-0.401,-0.195,-32.25,107.87,0
925354.0,0.12,0.381,-0.135,64.64,-138.47,0
