time_ms,accel_x,accel_y,accel_z,pitch,roll,sync
1105398.0,-0.022,0.009,0.013,19.68,58.73,0
1105403.0,-0.014,-0.029,0.023,-47.5,32.37,0
1105408.0,-0.029,0.004,-0.006,8.2,101.92,0
1105413.0,-0.005,0.021,-0.032,32.65,171.59,0
1105418.0,0.024,0.004,0.039,5.24,-31.27,0
1105423.0,-0.002,0.021,0.018,49.33,7.63,0
1105428.0,0.007,0.004,0.011,18.18,-33.89,0
1105433.0,0.012,-0.017,0.018,-38.83,-33.81,0
1105438.0,0.024,-0.008,0.027,-12.0,-41.09,0
1105443.0,0.017,0.021,-0.02,38.46,-140.64,0
1105448.0,0.012,0.009,-0.013,26.8,-137.9,0
1105453.0,0.014,-0.008,0.032,-12.37,-24.02,0
1105458.0,-0.005,-0.015,0.042,-19.52,6.53,0
1105463.0,0.005,-0.003,-0.011,-13.98,-156.19,0
1105468.0,-0.026,0.007,0.001,14.11,87.57,0
1105473.0,0.014,-0.001,0.011,-1.79,-53.33,0
1105478.0,-0.002,0.004,0.008,26.09,16.09,0
1105483.0,0.002,-0.015,0.025,-30.66,-5.46,0
1105488.0,-0.002,0.038,-0.004,83.38,146.89,0
1105493.0,0.012,0.031,0.001,68.53,-84.67,0
1105498.0,0.014,0.004,-0.023,8.91,-147.81,0
1105503.0,-0.005,0.002,-0.013,7.42,160.13,0
1105508.0,0.0,-0.015,0.032,-24.84,0.0,0
1105513.0,-0.002,0.009,0.015,29.93,8.79,0
1105518.0,0.002,-0.01,0.025,-21.93,-5.46,0
1105523.0,0.01,-0.015,0.027,-27.17,-19.23,0
1105528.0,0.01,0.019,0.006,58.82,-58.34,0
1105533.0,0.024,0.014,-0.028,20.7,-139.07,0
1105538.0,0.029,-0.02,0.018,-30.22,-58.11,0
1105543.0,0.005,-0.022,-0.004,-74.73,-127.47,0
1105548.0,0.01,0.004,-0.013,14.51,-144.14,0
1105553.0,0.019,-0.001,0.015,-1.3,-51.05,0
1105558.0,-0.01,0.016,0.02,35.85,25.29,0
1105563.0,0.012,0.021,0.013,49.8,-42.45,0
1105568.0,0.012,-0.005,0.004,-23.2,-73.65,0
1105573.0,0.029,0.004,-0.02,6.84,-125.42,0
1105578.0,-0.012,0.002,-0.011,6.48,132.2,0
1105583.0,-0.002,-0.01,-0.032,-17.33,175.77,0
1105588.0,-0.005,-0.01,0.008,-46.61,29.98,0
1105593.0,-0.012,0.019,0.023,35.96,27.84,0
1105598.0,0.019,0.016,-0.023,28.53,-140.0,0
1105603.0,0.0,-0.013,-0.023,-28.76,-180.0,0
1105608.0,0.0,0.023,0.047,26.64,0.0,0
1105613.0,0.024,-0.027,-0.001,-48.28,-93.05,0
1105618.0,0.022,-0.01,-0.008,-23.65,-111.43,0
1105623.0,-0.017,-0.015,-0.001,-41.6,94.36,0
1105628.0,0.012,-0.008,0.025,-15.58,-25.53,0
1105633.0,0.002,0.033,0.006,79.06,-22.07,0
1105638.0,-0.019,-0.01,0.049,-10.9,21.35,0
1105643.0,0.007,-0.015,0.004,-61.82,-63.95,0
1105648.0,0.005,-0.015,-0.006,-62.62,-141.71,0
1105653.0,0.005,-0.01,0.032,-17.27,-8.45,0
1105658.0,0.012,0.009,-0.047,10.58,-165.64,0
1105663.0,0.007,-0.025,0.03,-38.59,-13.53,0
1105668.0,-0.038,0.011,-0.018,15.08,115.21,0
1105673.0,0.01,-0.015,-0.013,-42.39,-144.14,0
1105678.0,-0.017,-0.015,0.013,-35.06,52.01,0
1105683.0,0.007,-0.02,0.023,-39.66,-17.58,0
1105688.0,0.014,0.023,0.004,57.69,-76.26,0
1105693.0,0.005,0.004,0.035,6.9,-7.87,0
1105698.0,-0.005,0.031,0.013,65.49,20.1,0
1105703.0,-0.031,0.016,-0.004,27.34,96.73,0
1105708.0,0.01,0.004,-0.011,16.29,-138.58,0
1105713.0,0.005,0.004,-0.001,40.48,-104.93,0
1105718.0,0.022,-0.02,0.004,-42.08,-80.74,0
1105723.0,-0.007,0.011,0.018,30.64,21.89,0
1105728.0,0.002,-0.008,-0.013,-29.9,-169.76,0
1105733.0,-0.024,-0.032,-0.008,-51.29,109.46,0
1105738.0,0.007,0.028,0.013,62.08,-28.76,0
1105743.0,0.024,-0.003,0.011,-6.42,-65.93,0
1105748.0,-0.002,-0.01,0.013,-37.3,10.37,0
1105753.0,-0.002,0.011,-0.028,22.38,175.04,0
1105758.0,0.012,0.009,-0.011,29.17,-132.2,0
1105763.0,-0.007,-0.02,-0.02,-42.31,160.63,0
1105768.0,0.029,0.009,0.015,15.45,-61.68,0
1105773.0,-0.014,-0.017,0.023,-32.84,32.37,0
1105778.0,-0.007,-0.017,0.006,-61.77,50.57,0
1105783.0,0.01,-0.025,-0.011,-59.43,-138.58,0
1105788.0,0.019,-0.034,-0.001,-60.61,-93.81,0
1105793.0,-0.002,0.009,-0.044,11.47,176.91,0
1105798.0,-0.024,-0.003,0.013,-6.18,61.34,0
1105803.0,0.045,0.019,0.027,19.29,-58.89,0
1105808.0,0.024,-0.001,0.023,-0.97,-46.57,0
1105813.0,-0.014,0.014,-0.02,28.93,144.89,0
1105818.0,-0.007,0.004,0.015,13.92,24.89,0
1105823.0,0.01,-0.022,0.044,-26.04,-12.22,0
1105828.0,-0.026,0.007,0.008,13.49,72.51,0
1105833.0,0.026,-0.01,0.008,-20.16,-72.51,0
1105838.0,-0.007,-0.013,0.02,-30.23,19.51,0
1105843.0,-0.005,0.021,-0.028,36.83,170.16,0
1105848.0,-0.005,0.002,-0.075,1.39,176.37,0
1105853.0,0.036,-0.01,0.032,-11.86,-48.08,0
1105858.0,0.014,-0.022,0.027,-35.51,-27.62,0
1105863.0,-0.007,-0.025,-0.02,-48.53,160.63,0
1105868.0,-0.007,-0.005,0.006,-29.9,50.57,0
1105873.0,0.01,0.019,0.051,19.58,-10.56,0
1105878.0,-0.007,-0.013,0.004,-57.46,63.95,0
1105883.0,0.0,0.002,-0.018,5.81,-180.0,0
1105888.0,-0.002,0.021,0.015,53.26,8.79,0
1105893.0,0.017,-0.032,-0.008,-59.35,-116.78,0
1105898.0,-0.002,0.004,-0.032,7.42,175.77,0
1105903.0,-0.017,0.004,-0.018,9.75,137.1,0
1105908.0,0.019,-0.008,0.013,-18.45,-55.65,0
1105913.0,0.029,0.011,0.004,21.52,-83.03,0
1105918.0,-0.002,0.004,-0.023,10.44,174.01,0
1105923.0,0.022,-0.036,0.004,-59.1,-80.74,0
1105928.0,0.019,-0.022,-0.006,-47.73,-107.57,0
1105933.0,-0.005,-0.013,-0.025,-26.02,169.25,0
1105938.0,0.012,-0.015,-0.052,-15.75,-166.93,0
1105943.0,-0.014,0.014,0.027,24.02,27.62,0
1105948.0,0.026,-0.001,-0.001,-1.21,-92.78,0
1105953.0,-0.005,-0.001,0.006,-4.2,39.03,0
1105958.0,0.007,-0.022,0.056,-21.32,-7.29,0
1105963.0,-0.002,0.026,0.015,58.71,8.79,0
1105968.0,-0.01,-0.005,-0.044,-6.72,167.82,0
1105973.0,-0.005,-0.005,0.027,-10.86,9.89,0
1105978.0,-0.005,-0.013,0.025,-26.16,10.82,0
1105983.0,-0.002,-0.01,-0.02,-26.23,173.32,0
1105988.0,0.012,-0.008,-0.004,-31.73,-107.05,0
1105993.0,-0.005,-0.005,0.023,-13.0,11.93,0
1105998.0,-0.014,-0.025,0.037,-31.67,21.2,0
1106003.0,0.012,-0.01,0.006,-37.21,-63.74,0
1106008.0,-0.007,-0.013,0.008,-48.78,40.87,0
1106013.0,0.014,0.016,-0.004,47.54,-104.33,0
1106018.0,0.029,0.009,0.001,17.41,-87.77,0
1106023.0,0.002,-0.001,-0.028,-1.15,-175.04,0
1106028.0,0.017,0.014,0.018,29.4,-43.15,0
1106033.0,-0.002,0.011,-0.02,29.02,173.32,0
1106038.0,0.022,0.016,0.004,36.58,-80.74,0
1106043.0,-0.01,0.019,0.015,45.61,31.74,0
1106048.0,-0.002,-0.013,-0.016,-38.37,171.3,0
1106053.0,0.012,0.009,0.011,29.33,-48.22,0
1106058.0,0.014,0.019,0.008,48.26,-59.98,0
1106063.0,-0.022,0.011,0.006,27.06,74.67,0
1106068.0,0.005,-0.015,0.032,-24.6,-8.45,0
1106073.0,-0.002,-0.013,0.006,-63.04,22.07,0
1106078.0,0.002,0.019,-0.016,49.6,-171.3,0
1106083.0,-0.01,-0.02,-0.066,-16.48,171.73,0
1106088.0,0.026,0.021,0.011,36.44,-67.9,0
1106093.0,0.014,0.021,-0.016,44.66,-137.44,0
1106098.0,-0.01,-0.015,0.011,-46.11,41.84,0
1106103.0,-0.019,0.009,-0.001,25.16,93.81,0
1106108.0,-0.002,-0.046,0.02,-66.09,6.74,0
1106113.0,-0.007,0.002,0.035,2.97,11.72,0
1106118.0,-0.01,0.023,0.025,41.08,20.91,0
1106123.0,0.026,-0.025,0.025,-33.98,-46.42,0
1106128.0,-0.014,0.002,0.008,6.31,59.98,0
1106133.0,-0.005,0.009,0.011,37.58,24.12,0
1106138.0,0.024,-0.015,0.008,-30.5,-70.88,0
1106143.0,0.01,-0.013,0.006,-48.08,-58.34,0
1106148.0,0.017,0.031,-0.006,59.75,-109.9,0
1106153.0,0.002,-0.003,-0.04,-4.26,-176.54,0
1106158.0,0.022,0.004,0.013,9.52,-58.73,0
1106163.0,-0.024,0.016,-0.028,23.91,139.07,0
1106168.0,0.012,-0.029,0.004,-66.93,-73.65,0
1106173.0,-0.019,0.014,0.013,30.76,55.65,0
1106178.0,-0.005,-0.003,0.011,-14.14,24.12,0
1106183.0,-0.005,0.028,0.027,45.31,9.89,0
1106188.0,0.012,-0.022,-0.006,-58.74,-116.87,0
1106193.0,0.007,0.002,-0.02,4.84,-160.63,0
1106198.0,-0.005,-0.003,0.018,-9.07,15.0,0
1106203.0,0.014,0.002,0.02,4.23,-35.32,0
1106208.0,0.005,-0.027,0.013,-62.61,-20.1,0
1106213.0,-0.007,-0.003,-0.008,-14.9,139.67,0
1106218.0,0.022,0.007,-0.028,10.71,-142.03,0
1106223.0,0.012,0.002,0.004,8.37,-73.65,0
1106228.0,0.002,0.021,0.008,67.63,-16.09,0
1106233.0,0.007,-0.013,-0.008,-48.47,-139.67,0
1106238.0,0.01,0.007,-0.011,24.59,-138.58,0
1106243.0,0.031,0.002,0.004,3.35,-83.56,0
1106248.0,-0.012,0.011,0.023,24.0,27.84,0
1106253.0,0.002,0.016,-0.028,30.31,-175.04,0
1106258.0,0.012,0.009,0.018,22.74,-33.81,0
1106263.0,0.002,-0.008,0.006,-50.54,-22.07,0
1106268.0,0.026,0.002,-0.004,3.95,-97.93,0
1106273.0,0.017,0.007,-0.016,16.12,-133.03,0
1106278.0,-0.012,0.007,0.006,26.39,63.74,0
1106283.0,0.038,-0.02,-0.004,-27.12,-95.47,0
1106288.0,0.002,0.019,0.035,28.17,-3.95,0
1106293.0,0.017,0.026,0.011,52.36,-57.46,0
1106298.0,0.017,0.002,0.008,5.61,-63.65,0
1106303.0,0.005,-0.008,-0.03,-14.29,-170.93,0
1106308.0,0.017,-0.008,0.032,-12.03,-27.47,0
1106313.0,0.002,0.016,0.037,23.59,-3.7,0
1106318.0,0.019,-0.003,0.018,-6.43,-46.98,0
1106323.0,-0.002,-0.017,-0.049,-19.38,177.21,0
1106328.0,-0.002,0.011,0.013,40.62,10.37,0
1106333.0,-0.002,-0.013,-0.008,-54.94,164.2,0
1106338.0,0.014,-0.003,0.004,-11.29,-76.26,0
1106343.0,0.012,0.002,0.018,4.88,-33.81,0
1106348.0,0.034,-0.003,0.039,-3.27,-40.37,0
1106353.0,-0.022,-0.027,-0.028,-37.52,142.03,0
1106358.0,-0.01,-0.022,-0.006,-62.85,122.35,0
1106363.0,-0.007,0.023,0.02,47.39,19.51,0
1106368.0,-0.014,0.016,-0.004,47.54,104.33,0
1106373.0,-0.01,0.009,-0.004,41.33,110.97,0
1106378.0,-0.019,0.007,-0.035,9.47,151.17,0
1106383.0,0.01,-0.001,-0.037,-0.83,-165.56,0
1106388.0,0.029,-0.01,-0.02,-16.04,-125.42,0
1106393.0,-0.017,-0.025,0.015,-47.04,47.27,0
1106398.0,0.034,0.002,0.027,2.43,-50.68,0
1106403.0,0.002,0.011,-0.04,16.05,-176.54,0
1106408.0,0.002,-0.005,-0.049,-6.2,-177.21,0
1106413.0,-0.022,0.016,0.02,28.71,46.75,0
1106418.0,0.005,-0.013,-0.006,-58.34,-141.71,0
1106423.0,-0.029,-0.003,0.015,-5.17,61.68,0
1106428.0,0.01,-0.003,0.011,-11.62,-41.84,0
1106433.0,0.01,0.011,0.018,29.37,-28.18,0
1106438.0,-0.014,-0.027,0.023,-45.06,32.37,0
1106443.0,0.019,-0.003,0.011,-7.67,-60.82,0
1106448.0,0.005,-0.025,-0.008,-68.36,-150.49,0
1106453.0,0.005,-0.008,0.03,-14.36,-9.11,0
1106458.0,0.01,-0.036,-0.006,-72.73,-122.35,0
1106463.0,0.012,-0.008,0.013,-23.58,-42.45,0
1106468.0,0.002,0.026,-0.018,54.79,-172.44,0
1106473.0,-0.007,0.021,-0.018,47.23,158.29,0
1106478.0,0.014,0.021,-0.008,51.54,-120.49,0
1106483.0,-0.01,-0.036,0.023,-55.99,22.91,0
1106488.0,0.031,0.002,0.011,3.19,-71.04,0
1106493.0,-0.01,0.004,-0.006,20.46,122.35,0
1106498.0,0.014,-0.001,-0.049,-0.62,-163.71,0
1106503.0,0.005,0.031,-0.001,80.79,-104.93,0
1106508.0,-0.01,-0.01,0.025,-20.7,20.91,0
1106513.0,0.007,0.028,0.006,71.73,-50.57,0
1106518.0,-0.014,-0.001,-0.008,-1.92,120.49,0
1106523.0,0.01,-0.005,0.018,-14.77,-28.18,0
1106528.0,-0.019,-0.008,-0.023,-14.56,140.0,0
1106533.0,0.01,-0.015,0.025,-29.09,-20.91,0
1106538.0,0.017,-0.001,0.037,-0.79,-24.35,0
1106543.0,-0.007,0.014,0.011,46.98,33.89,0
1106548.0,0.022,0.026,0.023,39.5,-43.55,0
1106553.0,0.007,0.002,-0.013,6.95,-151.53,0
1106558.0,0.002,0.004,0.006,33.57,-22.07,0
1106563.0,0.002,-0.013,0.013,-43.28,-10.37,0
1106568.0,0.029,-0.01,-0.013,-17.76,-114.75,0
1106573.0,0.01,-0.029,0.037,-37.44,-14.5,0
1106578.0,0.019,0.004,-0.013,10.29,-124.67,0
1106583.0,0.022,-0.022,-0.006,-44.64,-105.72,0
1106588.0,0.014,0.002,-0.008,6.28,-120.49,0
1106593.0,0.036,0.002,0.023,2.48,-57.74,0
1106598.0,-0.005,-0.044,0.025,-59.7,10.82,0
1106603.0,-0.017,0.014,0.042,17.04,21.84,0
1106608.0,0.014,0.026,-0.011,55.07,-127.07,0
1106613.0,-0.036,0.004,-0.008,6.54,103.25,0
1106618.0,0.036,0.009,0.02,12.34,-60.56,0
1106623.0,-0.024,-0.013,-0.001,-27.59,93.05,0
1106628.0,-0.014,0.021,-0.011,49.38,127.07,0
1106633.0,0.0,-0.001,0.015,-2.07,0.0,0
1106638.0,-0.012,-0.017,-0.013,-44.13,137.9,0
1106643.0,-0.01,0.019,-0.03,30.56,162.3,0
1106648.0,-0.002,-0.025,0.023,-47.07,6.03,0
1106653.0,-0.031,0.009,0.018,14.1,60.13,0
1106658.0,0.031,0.014,0.025,19.06,-51.16,0
1106663.0,-0.012,0.007,-0.008,24.32,125.25,0
1106668.0,0.0,-0.003,-0.037,-4.54,-180.0,0
1106673.0,-0.031,0.026,0.018,35.69,60.13,0
1106678.0,0.026,-0.01,-0.001,-21.03,-92.78,0
1106683.0,0.014,0.016,-0.032,24.56,-156.09,0
1106688.0,0.01,0.019,0.023,37.08,-22.91,0
1106693.0,0.005,-0.029,0.018,-57.71,-15.0,0
1106698.0,0.007,-0.013,0.018,-33.04,-21.89,0
1106703.0,0.029,-0.015,0.015,-24.57,-61.68,0
1106708.0,-0.012,-0.005,0.037,-7.82,17.91,0
1106713.0,0.026,-0.013,0.027,-18.23,-43.81,0
1106718.0,-0.005,-0.027,-0.008,-70.13,150.49,0
1106723.0,0.012,0.004,0.013,13.41,-42.45,0
1106728.0,-0.022,0.009,-0.023,16.03,136.65,0
1106733.0,-0.029,-0.005,-0.02,-8.62,125.42,0
1106738.0,-0.002,0.007,-0.011,30.79,167.56,0
1106743.0,0.012,0.016,0.03,26.74,-21.85,0
1106748.0,-0.002,0.014,-0.016,41.1,171.3,0
1106753.0,0.038,0.004,-0.018,5.71,-115.21,0
1106758.0,-0.005,-0.008,-0.037,-11.66,172.66,0
1106763.0,-0.002,-0.013,-0.018,-34.55,172.44,0
1106768.0,0.019,-0.034,0.015,-54.14,-51.05,0
1106773.0,0.002,-0.008,-0.035,-12.51,-176.06,0
1106778.0,0.01,0.038,0.02,59.29,-25.29,0
1106783.0,0.022,-0.025,0.032,-32.28,-33.76,0
1106788.0,-0.026,-0.003,0.027,-4.44,43.81,0
1106793.0,0.0,-0.01,-0.013,-37.42,-180.0,0
1106798.0,0.002,0.004,-0.028,8.68,-175.04,0
1106803.0,0.022,-0.022,0.001,-45.69,-87.03,0
1106808.0,0.017,-0.027,0.032,-36.51,-27.47,0
1106813.0,-0.024,0.007,-0.008,14.62,109.46,0
1106818.0,0.007,0.007,-0.02,17.01,-160.63,0
1106823.0,-0.007,0.002,0.025,4.03,15.99,0
1106828.0,0.01,-0.017,0.037,-24.36,-14.5,0
1106833.0,0.017,-0.013,0.015,-28.77,-47.27,0
1106838.0,0.036,-0.029,0.006,-38.83,-80.66,0
1106843.0,0.026,-0.025,-0.006,-42.19,-102.97,0
1106848.0,-0.005,-0.029,-0.04,-36.3,173.1,0
1106853.0,0.005,0.004,0.011,19.85,-24.12,0
1106858.0,-0.002,-0.02,-0.016,-51.24,171.3,0
1106863.0,0.012,0.019,-0.018,40.66,-146.43,0
1106868.0,0.002,0.019,0.02,42.33,-6.74,0
1106873.0,0.026,-0.005,0.004,-11.38,-82.41,0
1106878.0,0.014,0.004,0.008,14.3,-59.98,0
1106883.0,0.017,0.038,-0.013,60.49,-128.32,0
1106888.0,-0.014,-0.02,-0.028,-32.35,152.52,0
1106893.0,0.014,0.019,-0.016,41.2,-137.44,0
1106898.0,-0.002,0.016,0.015,45.96,8.79,0
1106903.0,-0.002,0.023,0.013,60.36,10.37,0
1106908.0,0.005,0.04,-0.016,67.83,-162.98,0
1106913.0,-0.01,0.011,-0.016,31.89,148.52,0
1106918.0,0.022,-0.013,-0.054,-12.17,-158.23,0
1106923.0,-0.022,-0.017,0.042,-20.21,27.26,0
1106928.0,0.0,0.004,0.042,5.78,0.0,0
1106933.0,0.002,-0.027,-0.006,-76.37,-158.46,0
1106938.0,-0.002,-0.02,-0.008,-65.96,164.2,0
1106943.0,-0.024,-0.005,0.004,-12.46,81.66,0
1106948.0,0.01,-0.003,-0.013,-10.24,-144.14,0
1106953.0,0.024,-0.001,-0.006,-1.3,-104.22,0
1106958.0,-0.017,-0.041,-0.011,-64.18,122.93,0
1106963.0,0.019,0.009,0.001,25.18,-86.66,0
1106968.0,0.017,-0.013,0.008,-33.82,-63.65,0
1106973.0,-0.002,0.011,-0.035,18.12,176.06,0
1106978.0,0.002,0.009,-0.006,54.13,-158.46,0
1106983.0,0.034,0.026,-0.047,24.13,-144.37,0
1106988.0,0.036,0.023,0.035,25.11,-46.04,0
1106993.0,0.007,0.026,-0.016,56.27,-155.34,0
1106998.0,0.0,0.002,-0.006,16.84,-180.0,0
1107003.0,0.017,-0.003,0.018,-6.87,-43.15,0
1107008.0,0.019,0.009,0.025,15.96,-37.39,0
1107013.0,-0.005,0.028,0.023,50.57,11.93,0
1107018.0,0.031,-0.022,-0.001,-35.36,-92.35,0
1107023.0,0.0,-0.008,-0.028,-15.66,-180.0,0
1107028.0,-0.002,-0.003,0.025,-6.69,5.46,0
1107033.0,0.005,0.002,0.006,13.57,-39.03,0
1107038.0,0.0,-0.032,0.011,-71.35,0.0,0
1107043.0,-0.026,-0.025,-0.013,-39.73,116.7,0
1107048.0,0.007,0.002,-0.001,14.12,-100.08,0
1107053.0,-0.029,-0.036,0.015,-48.18,61.68,0
1107058.0,0.002,-0.01,0.006,-57.84,-22.07,0
1107063.0,-0.012,-0.046,-0.004,-74.79,107.05,0
1107068.0,0.01,-0.017,0.015,-43.57,-31.74,0
1107073.0,0.01,0.016,0.018,38.62,-28.18,0
1107078.0,-0.012,0.019,-0.011,49.01,132.2,0
1107083.0,0.024,-0.02,0.037,-24.09,-32.88,0
1107088.0,0.002,-0.005,0.001,-63.7,-64.97,0
1107093.0,0.002,0.014,-0.006,64.72,-158.46,0
1107098.0,0.031,0.021,0.011,32.53,-71.04,0
1107103.0,-0.012,0.009,-0.016,24.6,142.57,0
1107108.0,0.007,0.035,-0.023,55.91,-162.53,0
1107113.0,0.026,-0.01,0.011,-19.62,-67.9,0
1107118.0,0.01,0.014,0.023,29.3,-22.91,0
1107123.0,0.012,-0.022,0.011,-54.02,-48.22,0
1107128.0,-0.007,-0.01,0.011,-38.19,33.89,0
1107133.0,-0.005,-0.008,0.023,-18.48,11.93,0
1107138.0,-0.01,-0.005,0.006,-25.42,58.34,0
1107143.0,-0.002,-0.005,0.023,-13.2,6.03,0
1107148.0,-0.012,0.009,0.027,16.76,23.56,0
1107153.0,-0.034,-0.015,0.015,-22.01,65.21,0
1107158.0,0.014,-0.003,0.013,-8.64,-47.66,0
1107163.0,0.007,-0.022,0.02,-45.79,-19.51,0
1107168.0,0.014,0.019,-0.006,50.02,-112.89,0
1107173.0,-0.005,-0.039,0.027,-54.36,9.89,0
1107178.0,-0.014,-0.001,-0.02,-1.28,144.89,0
1107183.0,0.014,0.009,0.023,18.58,-32.37,0
1107188.0,-0.017,0.014,0.027,23.23,31.4,0
1107193.0,0.017,0.011,-0.001,34.18,-94.36,0
1107198.0,0.014,0.007,0.025,12.92,-29.82,0
1107203.0,-0.012,-0.017,-0.001,-55.19,96.09,0
1107208.0,0.0,-0.001,0.015,-2.07,0.0,0
1107213.0,0.002,0.033,0.011,71.61,-12.62,0
1107218.0,0.005,0.011,0.042,15.17,-6.53,0
1107223.0,-0.01,0.007,-0.008,27.4,131.45,0
1107228.0,0.014,-0.001,-0.006,-2.05,-112.89,0
1107233.0,0.005,0.035,-0.001,82.02,-104.93,0
1107238.0,-0.036,-0.003,0.008,-4.58,76.99,0
1107243.0,-0.01,0.002,-0.013,6.41,144.14,0
1107248.0,0.012,-0.01,0.001,-40.13,-84.67,0
1107253.0,-0.002,-0.005,-0.023,-13.12,174.01,0
1107258.0,0.005,0.004,0.027,8.63,-9.89,0
1107263.0,-0.007,-0.008,0.018,-21.89,21.89,0
1107268.0,0.002,-0.01,-0.023,-23.83,-174.01,0
1107273.0,-0.002,-0.005,-0.013,-21.66,169.76,0
1107278.0,0.0,-0.039,0.023,-59.75,0.0,0
1107283.0,0.019,-0.005,0.02,-10.85,-43.38,0
1107288.0,-0.002,-0.036,0.032,-48.44,4.25,0
1107293.0,0.002,0.009,-0.037,13.6,-176.32,0
1107298.0,-0.002,0.009,0.004,64.77,34.29,0
1107303.0,-0.01,-0.008,-0.03,-13.81,162.3,0
1107308.0,-0.014,-0.013,0.02,-26.76,35.32,0
1107313.0,0.019,-0.027,0.03,-37.17,-32.69,0
1107318.0,-0.012,0.009,0.001,36.87,84.67,0
1107323.0,-0.005,0.021,0.008,65.46,29.98,0
1107328.0,-0.005,-0.005,0.008,-29.16,29.98,0
1107333.0,0.022,0.004,0.006,10.72,-74.67,0
1107338.0,-0.002,-0.008,0.006,-50.54,22.07,0
1107343.0,-0.012,0.007,-0.008,24.32,125.25,0
1107348.0,0.01,0.016,-0.016,41.45,-148.52,0
1107353.0,-0.007,0.026,0.011,63.45,33.89,0
1107358.0,0.029,-0.015,-0.016,-24.52,-118.57,0
1107363.0,0.005,0.016,-0.028,30.03,-170.16,0
1107368.0,-0.002,-0.01,-0.004,-66.62,146.89,0
1107373.0,-0.002,-0.022,-0.008,-68.31,164.2,0
1107378.0,-0.029,-0.017,0.004,-30.89,83.03,0
1107383.0,0.012,0.002,0.023,4.1,-27.84,0
1107388.0,0.005,-0.015,0.008,-57.3,-29.98,0
1107393.0,0.007,-0.025,-0.001,-73.42,-100.08,0
1107398.0,0.007,0.009,0.004,48.44,-63.95,0
1107403.0,0.036,-0.025,0.044,-23.27,-39.09,0
1107408.0,0.007,-0.022,0.02,-45.79,-19.51,0
1107413.0,-0.002,0.007,0.013,26.47,10.37,0
1107418.0,-0.007,0.004,-0.001,30.11,100.08,0
1107423.0,0.002,0.004,-0.032,7.42,-175.77,0
1107428.0,0.007,0.011,-0.035,17.81,-168.34,0
1107433.0,-0.002,0.004,0.001,58.01,64.97,0
1107438.0,0.017,0.019,0.02,35.26,-39.58,0
1107443.0,0.014,0.028,0.042,32.5,-18.96,0
1107448.0,0.005,0.004,-0.025,9.36,-169.25,0
1107453.0,0.012,0.016,0.004,52.4,-73.65,0
1107458.0,0.01,0.009,0.001,43.09,-83.34,0
1107463.0,0.007,0.002,0.004,12.93,-63.95,0
1107468.0,0.007,-0.017,0.042,-22.2,-9.75,0
1107473.0,0.0,-0.02,0.011,-61.52,0.0,0
1107478.0,0.017,0.009,-0.004,27.73,-102.35,0
1107483.0,0.002,0.004,-0.066,3.67,-177.92,0
1107488.0,0.01,-0.027,-0.006,-67.14,-122.35,0
1107493.0,0.01,-0.022,-0.023,-41.77,-157.24,0
1107498.0,0.007,-0.01,0.027,-19.65,-14.66,0
1107503.0,0.002,-0.017,-0.013,-52.14,-169.76,0
1107508.0,0.002,0.014,0.054,14.38,-2.55,0
1107513.0,0.017,0.002,-0.016,4.58,-133.03,0
1107518.0,-0.019,0.002,-0.025,3.32,142.78,0
1107523.0,-0.002,-0.003,0.015,-10.67,8.79,0
1107528.0,0.022,0.004,0.023,7.7,-43.55,0
1107533.0,0.031,0.011,0.027,15.38,-48.59,0
1107538.0,-0.01,0.023,0.004,66.43,69.86,0
1107543.0,0.01,0.011,0.032,18.74,-16.54,0
1107548.0,-0.002,0.023,-0.001,83.38,118.07,0
1107553.0,0.036,0.031,-0.011,39.17,-106.82,0
1107558.0,-0.012,0.016,-0.032,25.13,159.72,0
1107563.0,0.007,-0.017,-0.008,-57.35,-139.67,0
1107568.0,0.005,0.007,0.015,22.23,-17.19,0
1107573.0,-0.029,-0.013,-0.028,-17.45,133.86,0
1107578.0,0.002,0.014,0.001,79.17,-64.97,0
1107583.0,-0.012,-0.013,0.039,-16.91,16.89,0
1107588.0,-0.002,0.011,-0.025,24.25,174.58,0
1107593.0,0.007,0.014,-0.042,17.96,-170.29,0
1107598.0,0.017,0.007,-0.023,13.17,-143.71,0
1107603.0,-0.002,0.002,-0.004,22.73,146.89,0
1107608.0,-0.005,0.019,-0.004,72.02,127.47,0
1107613.0,0.034,-0.013,-0.023,-17.17,-124.25,0
1107618.0,0.0,0.011,0.004,72.9,0.0,0
1107623.0,0.005,0.007,0.015,22.23,-17.19,0
1107628.0,0.002,-0.003,0.023,-7.38,-6.03,0
1107633.0,-0.012,-0.001,0.02,-1.36,30.56,0
1107638.0,0.012,0.004,-0.018,11.06,-146.43,0
1107643.0,0.014,0.016,0.008,44.32,-59.98,0
1107648.0,-0.005,-0.013,0.006,-58.75,39.03,0
1107653.0,-0.005,-0.017,0.013,-51.17,20.1,0
1107658.0,0.0,0.014,0.015,41.72,0.0,0
1107663.0,-0.007,0.016,-0.018,39.85,158.29,0
1107668.0,0.002,-0.008,0.004,-61.23,-34.29,0
1107673.0,0.002,0.007,-0.001,67.72,-118.07,0
1107678.0,0.014,0.011,0.083,7.76,-9.88,0
1107683.0,0.002,0.011,-0.006,60.26,-158.46,0
1107688.0,-0.045,0.019,0.008,21.91,79.66,0
1107693.0,0.026,-0.003,-0.025,-4.63,-133.76,0
1107698.0,0.002,-0.044,-0.025,-59.87,-174.58,0
1107703.0,-0.019,-0.005,0.037,-7.31,27.35,0
1107708.0,-0.012,-0.008,-0.032,-12.63,159.72,0
1107713.0,0.026,-0.005,0.051,-5.29,-27.13,0
1107718.0,-0.01,0.007,0.011,24.77,41.84,0
1107723.0,0.031,-0.025,0.037,-26.86,-40.05,0
1107728.0,-0.029,-0.034,0.027,-40.61,46.3,0
1107733.0,0.002,-0.015,0.047,-17.73,-2.94,0
1107738.0,0.0,-0.029,-0.001,-87.5,-180.0,0
1107743.0,0.0,-0.036,-0.018,-63.69,-180.0,0
1107748.0,0.012,0.002,-0.008,7.14,-125.25,0
1107753.0,0.017,-0.013,0.011,-32.22,-57.46,0
1107758.0,0.012,0.004,0.001,19.38,-84.67,0
1107763.0,0.014,0.009,0.035,13.52,-22.53,0
1107768.0,0.022,0.016,-0.006,35.89,-105.72,0
1107773.0,0.007,0.007,-0.08,4.7,-174.89,0
1107778.0,-0.002,0.004,-0.008,25.69,164.2,0
1107783.0,-0.024,0.004,-0.006,9.72,104.22,0
1107788.0,0.019,-0.005,0.023,-10.21,-40.2,0
1107793.0,0.005,0.019,-0.018,44.9,-165.13,0
1107798.0,0.007,0.021,-0.001,70.83,-100.08,0
1107803.0,-0.022,-0.005,-0.037,-7.09,149.91,0
1107808.0,-0.017,0.002,0.011,5.28,57.46,0
1107813.0,0.007,-0.003,0.008,-15.06,-40.87,0
1107818.0,-0.019,-0.003,0.037,-4.05,27.35,0
1107823.0,0.002,-0.005,-0.016,-18.67,-171.3,0
1107828.0,-0.012,0.011,0.008,38.08,55.27,0
1107833.0,0.007,0.002,-0.02,4.84,-160.63,0
1107838.0,-0.007,0.007,-0.004,39.39,117.07,0
1107843.0,-0.014,-0.003,0.027,-5.44,27.62,0
1107848.0,-0.005,-0.001,0.059,-0.54,4.67,0
1107853.0,-0.012,0.023,-0.035,32.43,161.01,0
1107858.0,0.01,0.035,-0.052,33.99,-169.48,0
1107863.0,0.0,-0.02,-0.008,-66.77,-180.0,0
1107868.0,-0.01,-0.008,-0.018,-20.76,152.03,0
1107873.0,0.002,0.004,0.006,33.57,-22.07,0
1107878.0,0.036,0.019,0.004,27.26,-84.42,0
1107883.0,-0.005,0.002,0.03,3.47,9.11,0
1107888.0,-0.005,-0.003,-0.018,-8.99,165.13,0
1107893.0,0.0,-0.015,-0.011,-53.97,-180.0,0
1107898.0,0.014,-0.005,0.037,-7.67,-21.2,0
1107903.0,0.002,0.014,0.027,26.61,-4.98,0
1107908.0,0.019,-0.003,0.03,-4.76,-32.69,0
1107913.0,-0.005,-0.032,-0.023,-53.64,168.15,0
1107918.0,0.007,-0.001,-0.018,-1.65,-158.29,0
1107923.0,0.017,0.007,0.006,20.44,-70.59,0
1107928.0,0.012,-0.015,0.032,-23.46,-20.37,0
1107933.0,-0.012,-0.029,0.032,-40.42,20.37,0
1107938.0,0.014,-0.01,-0.004,-34.36,-104.33,0
1107943.0,0.014,0.002,0.004,7.08,-76.26,0
1107948.0,0.002,-0.008,0.008,-41.87,-16.09,0
1107953.0,-0.01,-0.032,0.008,-68.2,49.09,0
1107958.0,-0.024,0.023,0.037,27.94,32.88,0
1107963.0,0.036,0.016,-0.02,21.41,-119.64,0
1107968.0,0.007,-0.005,-0.032,-9.15,-167.5,0
1107973.0,0.01,0.011,-0.018,29.2,-152.03,0
1107978.0,0.017,-0.027,0.015,-49.69,-47.27,0
1107983.0,0.002,-0.003,-0.001,-47.42,-118.07,0
1107988.0,-0.007,0.009,0.013,31.13,28.76,0
1107993.0,0.012,0.023,0.004,61.92,-73.65,0
1107998.0,0.014,0.007,-0.02,14.85,-144.89,0
1108003.0,0.031,0.009,-0.04,10.15,-141.82,0
1108008.0,0.0,0.016,-0.028,30.4,-180.0,0
1108013.0,-0.002,-0.032,0.011,-70.92,12.62,0
1108018.0,0.017,0.009,0.047,10.32,-19.78,0
1108023.0,0.024,0.016,0.056,14.86,-23.08,0
1108028.0,0.017,-0.001,0.027,-0.99,-31.4,0
1108033.0,0.005,0.014,0.013,44.73,-20.1,0
1108038.0,0.01,-0.013,0.008,-44.67,-49.09,0
1108043.0,0.002,0.021,0.001,82.83,-64.97,0
1108048.0,0.002,0.004,0.042,5.77,-3.28,0
1108053.0,-0.017,-0.003,-0.008,-8.94,116.78,0
1108058.0,-0.014,-0.017,0.018,-37.06,38.78,0
1108063.0,0.002,-0.02,-0.013,-55.67,-169.76,0
1108068.0,0.014,0.014,0.018,31.05,-38.78,0
1108073.0,-0.014,0.007,0.018,16.11,38.78,0
1108078.0,0.0,-0.039,-0.025,-57.02,-180.0,0
1108083.0,0.017,0.019,0.018,37.19,-43.15,0
1108088.0,0.029,-0.027,0.037,-29.85,-37.81,0
1108093.0,0.0,0.011,-0.03,20.82,-180.0,0
1108098.0,0.005,0.011,0.02,28.72,-13.29,0
1108103.0,-0.01,0.016,0.015,41.67,31.74,0
1108108.0,0.01,-0.003,-0.044,-3.72,-167.82,0
1108113.0,0.031,0.014,-0.006,23.53,-101.03,0
1108118.0,0.01,0.014,-0.023,29.15,-157.24,0
1108123.0,-0.007,0.011,0.056,11.39,7.29,0
1108128.0,0.007,0.014,-0.011,46.69,-146.5,0
1108133.0,0.019,-0.001,0.001,-1.67,-86.66,0
1108138.0,0.005,-0.036,0.054,-34.03,-5.09,0
1108143.0,0.002,0.002,-0.008,11.79,-164.2,0
1108148.0,0.022,-0.008,0.039,-9.78,-28.66,0
1108153.0,-0.014,-0.003,0.011,-9.36,53.33,0
1108158.0,0.002,-0.01,0.015,-32.9,-8.79,0
1108163.0,0.002,-0.001,0.02,-1.57,-6.74,0
1108168.0,-0.01,-0.013,-0.018,-31.53,152.03,0
1108173.0,0.014,-0.017,-0.001,-50.21,-95.08,0
1108178.0,0.014,0.004,0.008,14.3,-59.98,0
1108183.0,-0.026,0.04,-0.008,55.43,107.81,0
1108188.0,-0.002,0.007,0.042,8.99,3.28,0
1108193.0,0.005,-0.027,0.008,-70.39,-29.98,0
1108198.0,-0.019,-0.022,0.013,-43.62,55.65,0
1108203.0,-0.017,-0.005,-0.006,-16.7,109.9,0
1108208.0,0.017,0.014,0.035,19.74,-25.82,0
1108213.0,0.017,-0.017,-0.006,-44.18,-109.9,0
1108218.0,0.005,-0.008,0.03,-14.36,-9.11,0
1108223.0,-0.022,-0.001,-0.037,-0.74,149.91,0
1108228.0,-0.012,-0.051,-0.006,-75.21,116.87,0
1108233.0,-0.007,0.007,-0.018,18.84,158.29,0
1108238.0,0.019,0.007,-0.006,18.25,-107.57,0
1108243.0,-0.005,-0.003,0.02,-8.07,13.29,0
1108248.0,0.005,-0.039,-0.018,-64.35,-165.13,0
1108253.0,-0.005,-0.017,0.025,-34.17,10.82,0
1108258.0,0.014,-0.015,0.015,-35.24,-42.86,0
1108263.0,-0.01,-0.013,0.027,-23.31,19.23,0
1108268.0,-0.038,-0.013,-0.059,-10.13,146.89,0
1108273.0,-0.007,0.031,-0.001,76.58,100.08,0
1108278.0,0.024,-0.001,0.03,-0.84,-38.73,0
1108283.0,0.022,-0.003,0.02,-5.7,-46.75,0
1108288.0,0.014,-0.01,0.006,-33.13,-67.65,0
1108293.0,0.002,-0.01,0.011,-42.76,-12.62,0
1108298.0,-0.012,0.004,0.011,14.76,48.22,0
1108303.0,0.014,-0.015,-0.013,-37.37,-132.68,0
1108308.0,-0.007,-0.015,0.035,-22.87,11.72,0
1108313.0,0.01,0.014,0.011,43.88,-41.84,0
1108318.0,0.01,-0.01,-0.054,-10.48,-169.93,0
1108323.0,0.024,0.026,-0.006,46.23,-104.22,0
1108328.0,-0.01,-0.02,0.013,-50.55,36.19,0
1108333.0,0.0,-0.01,-0.023,-23.94,-180.0,0
1108338.0,-0.01,-0.001,0.027,-1.1,19.23,0
1108343.0,0.022,0.004,0.025,7.29,-40.69,0
1108348.0,0.005,0.011,0.03,20.68,-9.11,0
1108353.0,-0.012,0.019,-0.001,57.08,96.09,0
1108358.0,0.014,0.019,-0.035,26.29,-157.57,0
1108363.0,-0.012,0.019,-0.013,46.16,137.9,0
1108368.0,-0.012,-0.027,0.001,-65.91,84.67,0
1108373.0,-0.007,-0.015,0.004,-61.82,63.95,0
1108378.0,0.01,0.019,-0.023,36.92,-157.24,0
1108383.0,0.01,-0.005,0.008,-22.88,-49.09,0
1108388.0,0.014,-0.01,-0.016,-25.51,-137.44,0
1108393.0,-0.002,-0.008,-0.061,-7.21,177.76,0
1108398.0,0.029,0.007,0.02,10.67,-54.79,0
1108403.0,-0.022,0.014,-0.013,28.63,121.58,0
1108408.0,0.014,0.016,0.015,37.49,-42.86,0
1108413.0,0.017,-0.01,0.023,-19.78,-36.48,0
1108418.0,-0.002,0.019,0.013,54.42,10.37,0
1108423.0,0.022,-0.003,-0.001,-7.79,-93.39,0
1108428.0,0.002,0.031,-0.006,77.96,-158.46,0
1108433.0,0.007,-0.022,-0.013,-55.72,-151.53,0
1108438.0,0.017,-0.001,-0.028,-0.99,-148.75,0
1108443.0,-0.014,0.009,0.042,11.53,18.96,0
1108448.0,-0.002,-0.001,-0.016,-2.02,171.3,0
1108453.0,-0.014,0.011,-0.028,20.14,152.52,0
1108458.0,0.014,0.011,0.004,37.66,-76.26,0
1108463.0,0.012,0.011,0.042,14.7,-15.97,0
1108468.0,0.005,-0.001,-0.008,-3.29,-150.49,0
1108473.0,0.01,-0.005,-0.004,-27.53,-110.97,0
1108478.0,-0.002,-0.01,-0.004,-66.62,146.89,0
1108483.0,0.017,-0.003,0.035,-4.39,-25.82,0
1108488.0,0.012,0.028,0.004,66.11,-73.65,0
1108493.0,-0.007,-0.003,0.011,-12.91,33.89,0
1108498.0,-0.005,-0.048,0.051,-43.18,5.32,0
1108503.0,-0.005,0.014,-0.004,66.39,127.47,0
1108508.0,0.019,-0.003,0.025,-5.35,-37.39,0
1108513.0,0.019,-0.025,0.013,-46.56,-55.65,0
1108518.0,0.01,-0.02,-0.006,-60.1,-122.35,0
1108523.0,-0.002,-0.005,0.03,-10.12,4.59,0
1108528.0,0.019,-0.025,-0.023,-39.43,-140.0,0
1108533.0,0.017,0.014,-0.04,17.81,-157.05,0
1108538.0,0.01,0.007,-0.04,9.24,-166.4,0
1108543.0,0.005,0.014,-0.013,44.43,-160.13,0
1108548.0,0.005,-0.008,0.011,-33.45,-24.12,0
1108553.0,-0.012,0.019,0.025,33.8,25.53,0
1108558.0,0.005,0.007,-0.004,47.67,-127.47,0
1108563.0,0.019,-0.013,-0.035,-17.51,-151.17,0
1108568.0,-0.019,-0.02,-0.028,-30.39,145.25,0
1108573.0,-0.022,-0.008,0.015,-16.26,54.3,0
1108578.0,0.007,-0.017,0.059,-16.35,-6.99,0
1108583.0,0.005,-0.005,0.008,-29.16,-29.98,0
1108588.0,0.012,0.002,-0.02,4.43,-149.63,0
1108593.0,0.01,-0.02,0.02,-41.32,-25.29,0
1108598.0,-0.01,-0.01,-0.023,-22.27,157.24,0
1108603.0,0.026,0.004,0.008,8.71,-72.51,0
1108608.0,0.002,-0.015,-0.02,-35.96,-173.32,0
1108613.0,0.01,-0.003,0.004,-16.14,-69.86,0
1108618.0,0.0,-0.039,-0.03,-52.33,-180.0,0
1108623.0,-0.002,-0.001,0.015,-2.04,8.79,0
1108628.0,-0.041,0.016,0.001,21.7,88.43,0
1108633.0,-0.01,-0.01,0.066,-8.67,8.29,0
1108638.0,-0.014,0.004,0.025,8.33,29.82,0
1108643.0,-0.01,-0.005,-0.013,-18.11,144.14,0
1108648.0,0.01,-0.029,0.015,-58.14,-31.74,0
1108653.0,0.005,0.002,-0.006,13.36,-141.71,0
1108658.0,0.014,-0.008,0.025,-15.0,-29.82,0
1108663.0,-0.012,0.002,0.013,5.91,42.45,0
1108668.0,0.026,0.009,-0.006,18.45,-102.97,0
1108673.0,-0.036,-0.01,-0.042,-10.4,139.45,0
1108678.0,-0.005,0.033,-0.02,57.52,166.81,0
1108683.0,0.002,-0.029,-0.013,-65.32,-169.76,0
1108688.0,0.017,-0.015,0.025,-26.34,-33.77,0
1108693.0,0.01,0.009,0.042,11.87,-12.9,0
1108698.0,-0.048,0.011,-0.008,13.21,100.02,0
1108703.0,-0.014,-0.001,-0.001,-2.22,95.08,0
1108708.0,0.007,0.004,-0.025,9.16,-164.1,0
1108713.0,-0.041,0.002,0.008,2.53,78.47,0
1108718.0,-0.005,-0.001,-0.03,-1.05,170.93,0
1108723.0,0.002,0.002,-0.008,11.79,-164.2,0
1108728.0,0.022,-0.01,-0.066,-8.31,-161.9,0
1108733.0,0.012,0.009,0.006,34.04,-63.74,0
1108738.0,-0.01,-0.041,0.037,-47.17,14.5,0
1108743.0,0.005,-0.008,-0.042,-10.38,-173.49,0
1108748.0,0.017,-0.013,-0.052,-13.01,-161.99,0
1108753.0,0.06,-0.013,0.004,-11.8,-86.64,0
1108758.0,0.019,0.016,0.037,21.24,-27.35,0
1108763.0,-0.014,0.009,-0.008,28.41,120.49,0
1108768.0,-0.01,0.038,-0.004,74.8,110.97,0
1108773.0,0.007,0.009,-0.03,16.29,-166.54,0
1108778.0,-0.026,-0.017,0.025,-25.47,46.42,0
1108783.0,-0.012,-0.008,0.035,-11.93,19.07,0
1108788.0,0.012,-0.005,0.018,-13.96,-33.81,0
1108793.0,0.036,0.023,-0.006,32.7,-99.59,0
1108798.0,-0.005,-0.001,-0.004,-5.29,127.47,0
1108803.0,0.007,0.009,0.023,20.77,-17.58,0
1108808.0,0.017,0.014,0.018,29.4,-43.15,0
1108813.0,-0.014,-0.025,0.018,-46.89,38.78,0
1108818.0,0.002,-0.06,0.001,-87.5,-64.97,0
1108823.0,-0.012,0.019,0.001,57.11,84.67,0
1108828.0,0.022,-0.003,-0.006,-7.51,-105.72,0
1108833.0,-0.014,0.021,-0.011,49.38,127.07,0
1108838.0,0.01,0.016,-0.018,38.43,-152.03,0
1108843.0,-0.01,-0.044,0.008,-73.81,49.09,0
1108848.0,0.019,0.007,-0.011,16.75,-119.54,0
1108853.0,-0.007,0.016,0.013,47.34,28.76,0
1108858.0,0.007,0.021,-0.001,70.83,-100.08,0
1108863.0,0.0,-0.01,-0.016,-32.94,-180.0,0
1108868.0,-0.002,-0.015,-0.025,-30.5,174.58,0
1108873.0,0.005,0.002,0.03,3.47,-9.11,0
1108878.0,0.012,-0.02,0.032,-29.82,-20.37,0
1108883.0,0.022,0.004,-0.02,8.11,-133.48,0
1108888.0,-0.005,-0.001,-0.02,-1.52,166.81,0
1108893.0,0.017,0.016,0.023,29.89,-36.48,0
1108898.0,-0.012,0.016,-0.013,42.22,137.9,0
1108903.0,-0.01,-0.001,0.018,-1.58,28.18,0
1108908.0,-0.002,-0.013,0.015,-38.65,8.79,0
1108913.0,0.002,-0.025,0.006,-75.42,-22.07,0
1108918.0,0.014,0.019,0.013,43.74,-47.66,0
1108923.0,0.005,-0.01,-0.023,-23.49,-168.15,0
1108928.0,-0.005,0.035,-0.016,65.17,162.98,0
1108933.0,-0.005,0.019,0.011,57.78,24.12,0
1108938.0,-0.01,-0.025,0.023,-44.88,22.91,0
1108943.0,0.0,-0.017,0.044,-21.39,0.0,0
1108948.0,0.026,0.011,-0.013,21.16,-116.7,0
1108953.0,0.019,0.019,0.042,22.01,-24.61,0
1108958.0,0.026,-0.001,-0.013,-1.09,-116.7,0
1108963.0,-0.002,-0.001,0.013,-2.4,10.37,0
1108968.0,0.002,0.002,-0.008,11.79,-164.2,0
1108973.0,-0.014,-0.001,0.035,-0.85,22.53,0
1108978.0,-0.007,0.007,0.018,18.97,21.89,0
1108983.0,-0.022,0.009,-0.008,21.28,111.43,0
1108988.0,0.017,0.004,-0.011,11.96,-122.93,0
1108993.0,0.005,0.014,0.035,21.55,-7.87,0
1108998.0,0.014,-0.003,0.035,-4.5,-22.53,0
1109003.0,0.012,0.028,-0.03,41.09,-158.25,0
1109008.0,-0.002,0.007,0.025,14.74,5.46,0
1109013.0,0.045,-0.005,-0.006,-6.65,-97.59,0
1109018.0,-0.005,-0.032,-0.008,-72.94,150.49,0
1109023.0,-0.029,-0.022,0.004,-37.37,83.03,0
1109028.0,0.022,0.007,0.006,16.51,-74.67,0
1109033.0,0.005,0.002,0.006,13.57,-39.03,0
1109038.0,0.012,0.002,0.018,4.88,-33.81,0
1109043.0,0.034,-0.003,-0.004,-5.0,-96.25,0
1109048.0,0.024,-0.001,0.042,-0.66,-29.79,0
1109053.0,0.002,0.019,-0.04,25.12,-176.54,0
1109058.0,-0.005,-0.005,0.018,-16.11,15.0,0
1109063.0,0.024,-0.027,0.018,-41.99,-53.25,0
1109068.0,-0.01,-0.02,0.013,-50.55,36.19,0
1109073.0,0.026,-0.001,-0.006,-1.18,-102.97,0
1109078.0,0.002,-0.015,0.032,-24.78,-4.25,0
1109083.0,0.01,0.021,-0.025,37.89,-159.21,0
1109088.0,-0.002,-0.01,0.004,-67.25,34.29,0
1109093.0,-0.012,-0.025,0.027,-39.28,23.56,0
1109098.0,0.01,-0.003,0.027,-5.8,-19.23,0
1109103.0,0.005,-0.036,0.02,-60.27,-13.29,0
1109108.0,0.01,0.009,0.035,14.09,-15.46,0
1109113.0,0.002,0.016,0.025,32.76,-5.46,0
1109118.0,-0.026,-0.01,-0.006,-20.56,102.97,0
1109123.0,0.005,-0.01,0.004,-59.64,-53.75,0
1109128.0,0.019,-0.017,0.008,-39.68,-66.57,0
1109133.0,0.022,0.002,0.018,3.75,-50.32,0
1109138.0,-0.005,0.011,-0.032,19.21,171.59,0
1109143.0,-0.01,-0.048,-0.023,-62.93,157.24,0
1109148.0,-0.014,-0.01,0.008,-31.42,59.98,0
1109153.0,-0.022,0.009,0.011,20.55,63.6,0
1109158.0,0.002,0.004,0.001,58.01,-64.97,0
1109163.0,-0.012,-0.008,-0.011,-25.6,132.2,0
1109168.0,-0.026,-0.027,0.008,-44.24,72.51,0
1109173.0,0.017,-0.013,0.02,-25.47,-39.58,0
1109178.0,0.0,-0.015,0.018,-39.86,0.0,0
1109183.0,0.012,-0.005,-0.023,-11.72,-152.32,0
1109188.0,0.0,0.028,0.008,73.58,0.0,0
1109193.0,0.0,0.028,0.02,54.26,0.0,0
1109198.0,0.0,-0.025,0.013,-61.89,0.0,0
1109203.0,0.002,0.033,-0.013,67.78,-169.76,0
1109208.0,-0.022,0.011,0.011,25.38,63.6,0
1109213.0,0.017,-0.015,0.006,-40.03,-70.59,0
1109218.0,-0.017,0.016,0.044,18.91,20.76,0
1109223.0,0.002,-0.003,0.032,-5.22,-4.25,0
1109228.0,0.017,0.011,0.008,31.39,-63.65,0
1109233.0,0.007,0.007,-0.035,10.56,-168.34,0
1109238.0,0.01,-0.029,-0.03,-42.92,-162.3,0
1109243.0,-0.017,0.04,0.035,46.21,25.82,0
1109248.0,0.002,0.035,0.013,69.38,-10.37,0
1109253.0,0.041,0.019,0.006,24.33,-81.74,0
1109258.0,0.007,0.026,-0.03,39.88,-166.54,0
1109263.0,-0.005,-0.02,-0.044,-23.83,173.84,0
1109268.0,0.005,-0.003,-0.001,-30.79,-104.93,0
1109273.0,-0.002,-0.005,0.035,-8.76,3.95,0
1109278.0,0.024,0.016,0.075,11.58,-17.63,0
1109283.0,0.007,0.016,0.025,31.86,-15.99,0
1109288.0,0.019,-0.013,-0.02,-24.1,-136.85,0
1109293.0,0.014,0.009,-0.025,17.26,-150.33,0
1109298.0,-0.01,-0.003,0.03,-5.38,17.79,0
1109303.0,0.022,-0.001,0.037,-0.75,-30.2,0
1109308.0,0.019,-0.013,0.027,-20.52,-34.9,0
1109313.0,-0.002,0.028,-0.068,22.4,177.99,0
1109318.0,0.01,0.007,0.001,34.49,-83.34,0
1109323.0,0.005,0.028,0.004,78.1,-53.75,0
1109328.0,0.019,0.021,0.049,21.75,-21.35,0
1109333.0,-0.045,-0.015,0.008,-17.89,79.66,0
1109338.0,-0.024,-0.013,-0.03,-18.08,141.41,0
1109343.0,0.002,0.014,-0.006,64.72,-158.46,0
1109348.0,0.007,0.009,-0.04,12.63,-169.72,0
1109353.0,0.012,-0.017,0.032,-26.73,-20.37,0
1109358.0,0.017,-0.017,0.015,-37.2,-47.27,0
1109363.0,-0.031,-0.001,-0.013,-0.95,113.06,0
1109368.0,0.024,0.019,-0.02,30.57,-130.48,0
1109373.0,0.019,-0.001,0.001,-1.67,-86.66,0
1109378.0,0.012,-0.034,-0.059,-29.62,-168.48,0
1109383.0,-0.005,-0.001,-0.001,-6.43,104.93,0
1109388.0,0.0,0.016,0.006,69.97,0.0,0
1109393.0,0.002,-0.001,0.008,-3.7,-16.09,0
1109398.0,-0.022,-0.003,-0.032,-4.34,146.38,0
1109403.0,0.01,-0.02,-0.04,-25.83,-166.4,0
1109408.0,0.005,0.004,0.015,14.63,-17.19,0
1109413.0,-0.014,-0.02,-0.042,-23.95,161.11,0
1109418.0,0.019,-0.025,-0.011,-48.06,-119.54,0
1109423.0,0.01,-0.027,0.006,-67.3,-58.34,0
1109428.0,0.026,-0.015,0.006,-28.94,-77.36,0
1109433.0,-0.01,-0.008,-0.008,-31.21,131.45,0
1109438.0,-0.012,-0.027,0.013,-56.6,42.45,0
1109443.0,0.002,-0.013,-0.013,-42.95,-169.76,0
1109448.0,0.0,-0.008,0.023,-18.86,0.0,0
1109453.0,-0.014,0.009,-0.004,31.31,104.33,0
1109458.0,0.012,-0.001,-0.02,-1.35,-149.63,0
1109463.0,-0.002,-0.008,0.001,-71.15,64.97,0
1109468.0,0.024,-0.025,0.03,-32.63,-38.73,0
1109473.0,-0.014,-0.003,0.025,-5.84,29.82,0
1109478.0,-0.012,-0.022,0.013,-51.26,42.45,0
1109483.0,0.012,-0.013,0.015,-32.63,-37.71,0
1109488.0,-0.01,-0.017,-0.011,-50.11,138.58,0
1109493.0,0.01,-0.005,-0.004,-27.53,-110.97,0
1109498.0,0.022,-0.017,-0.023,-28.89,-136.65,0
1109503.0,-0.002,0.007,0.023,16.21,6.03,0
1109508.0,-0.012,-0.005,0.004,-23.2,73.65,0
1109513.0,0.007,-0.001,0.001,-4.39,-81.15,0
1109518.0,0.002,-0.015,-0.04,-20.62,-176.54,0
1109523.0,0.014,-0.022,0.006,-54.91,-67.65,0
1109528.0,-0.007,-0.008,0.03,-14.15,13.53,0
1109533.0,-0.002,-0.017,0.039,-23.68,3.48,0
1109538.0,0.002,-0.022,0.013,-58.96,-10.37,0
1109543.0,-0.017,-0.022,-0.001,-52.75,94.36,0
1109548.0,-0.017,0.019,0.008,44.84,63.65,0
1109553.0,-0.012,0.011,-0.023,23.88,152.32,0
1109558.0,0.0,0.009,0.059,8.75,0.0,0
1109563.0,0.012,-0.022,-0.004,-60.47,-107.05,0
1109568.0,-0.014,0.019,0.004,51.51,76.26,0
1109573.0,0.017,0.023,-0.008,51.24,-116.78,0
1109578.0,-0.012,-0.013,0.015,-32.63,37.71,0
1109583.0,0.012,-0.001,-0.006,-2.38,-116.87,0
1109588.0,-0.024,-0.003,-0.052,-2.97,155.09,0
1109593.0,-0.014,-0.013,0.013,-32.81,47.66,0
1109598.0,-0.019,0.004,-0.004,12.24,100.85,0
1109603.0,0.007,-0.001,-0.037,-0.84,-169.07,0
1109608.0,-0.01,-0.013,-0.016,-34.34,148.52,0
1109613.0,-0.012,-0.01,0.025,-20.05,25.53,0
1109618.0,-0.002,-0.008,-0.001,-70.68,118.07,0
1109623.0,0.0,0.014,0.037,20.45,0.0,0
1109628.0,0.005,0.021,-0.02,45.01,-166.81,0
1109633.0,0.012,-0.003,0.001,-13.8,-84.67,0
1109638.0,0.002,-0.017,0.02,-40.31,-6.74,0
1109643.0,-0.007,-0.015,0.02,-34.76,19.51,0
1109648.0,-0.026,-0.005,0.027,-8.0,43.81,0
1109653.0,-0.012,-0.029,-0.006,-65.38,116.87,0
1109658.0,-0.019,0.021,-0.008,45.07,113.83,0
1109663.0,0.01,0.011,-0.018,29.2,-152.03,0
1109668.0,-0.005,0.007,0.008,34.66,29.98,0
1109673.0,0.0,0.004,0.02,11.79,0.0,0
1109678.0,-0.01,0.007,-0.023,14.98,157.24,0
1109683.0,0.017,0.002,-0.001,6.23,-94.36,0
1109688.0,-0.022,-0.003,-0.006,-7.51,105.72,0
1109693.0,-0.005,0.028,0.001,80.1,76.86,0
1109698.0,0.043,0.009,0.054,7.45,-38.7,0
1109703.0,-0.029,0.019,0.032,23.3,41.7,0
1109708.0,0.012,0.004,-0.03,7.46,-158.25,0
1109713.0,-0.005,-0.025,-0.032,-36.8,171.59,0
1109718.0,-0.017,-0.01,0.042,-12.68,21.84,0
1109723.0,0.043,0.028,0.013,32.03,-73.11,0
1109728.0,-0.026,-0.005,-0.013,-10.28,116.7,0
1109733.0,0.01,0.05,-0.02,65.59,-154.89,0
1109738.0,-0.005,-0.013,-0.116,-6.15,177.64,0
1109743.0,-0.065,-0.094,0.013,-54.93,78.55,0
1109748.0,0.146,0.203,0.135,45.56,-47.21,0
1109753.0,-0.412,0.019,-0.243,2.23,120.55,0
1109758.0,0.206,-0.312,0.071,-55.08,-71.09,0
1109763.0,0.074,-0.19,0.226,-38.55,-18.17,0
1109768.0,-0.29,-0.099,-0.55,-9.03,152.2,0
1109773.0,0.208,0.797,0.171,71.31,-50.6,0
1109778.0,0.256,-0.491,0.54,-39.43,-25.39,0
1109783.0,-0.182,-0.238,-0.03,-52.18,99.36,0
1109788.0,-0.151,-0.123,-0.157,-29.41,136.13,0
1109793.0,0.182,0.706,-0.176,70.26,-134.06,0
1109798.0,-0.431,-0.211,-0.138,-25.03,107.73,0
1109803.0,0.85,-0.281,0.355,-16.94,-67.3,0
1109808.0,-0.989,-0.561,0.051,-29.53,87.02,0
1109813.0,1.015,0.675,0.085,33.51,-85.22,0
1109818.0,-0.067,-0.127,-0.14,-39.37,154.44,0
1109823.0,0.175,0.016,1.026,0.89,-9.67,0
1109828.0,0.11,-0.661,0.786,-39.79,-7.97,0
1109833.0,0.299,0.399,-0.72,27.13,-157.42,0
1109838.0,-0.493,-0.058,-0.758,-3.67,146.94,0
1109843.0,0.46,0.39,0.739,24.13,-31.9,0
1109848.0,-0.46,-0.836,0.212,-58.81,65.26,0
1109853.0,0.577,0.43,-0.37,32.13,-122.67,0
1109858.0,-0.364,-0.285,0.181,-35.09,63.6,0
1109863.0,0.338,0.416,0.411,38.05,-39.43,0
1109868.0,-0.294,-0.836,-0.494,-55.46,149.22,0
1109873.0,0.522,0.253,0.087,25.57,-80.5,0
1109878.0,-0.407,-0.24,0.327,-24.69,51.24,0
1109883.0,0.393,0.742,-0.035,62.01,-95.06,0
1109888.0,-0.472,-0.63,-0.552,-40.96,139.48,0
1109893.0,0.524,-0.429,0.111,-38.68,-78.02,0
1109898.0,-0.357,-0.446,0.238,-46.11,56.27,0
1109903.0,0.453,0.555,0.116,49.91,-75.62,0
1109908.0,-0.232,-0.477,-0.028,-63.88,96.78,0
1109913.0,0.572,0.272,0.456,20.42,-51.45,0
1109918.0,-0.354,-0.633,0.015,-60.72,87.5,0
1109923.0,0.455,0.639,0.075,54.17,-80.6,0
1109928.0,-0.359,-0.453,-0.114,-50.26,107.58,0
1109933.0,-0.141,-0.506,-0.035,-73.95,103.84,0
1109938.0,-0.342,-0.673,-0.052,-62.79,98.56,0
1109943.0,0.378,0.562,0.025,56.0,-86.21,0
1109948.0,-0.397,-0.592,-0.135,-54.65,108.81,0
1109953.0,0.512,0.639,0.363,45.5,-54.71,0
1109958.0,-0.421,-0.676,-0.018,-58.03,92.45,0
1109963.0,0.426,0.404,-0.226,39.94,-117.97,0
1109968.0,-0.388,-0.47,0.085,-49.8,77.65,0
1109973.0,-0.096,-0.379,-0.152,-64.62,147.81,0
1109978.0,-0.352,-0.427,0.056,-50.13,80.93,0
1109983.0,0.345,0.311,-0.162,39.21,-115.13,0
1109988.0,-0.283,-0.453,-0.042,-57.77,98.45,0
1109993.0,0.421,0.445,-0.277,41.42,-123.28,0
1109998.0,-0.354,-0.374,0.106,-45.31,73.28,0
1110003.0,0.488,-0.429,-0.056,-41.11,-96.58,0
1110008.0,-0.479,0.383,0.083,38.21,80.22,0
1110013.0,-0.084,-0.204,-0.198,-43.55,157.02,0
1110018.0,-0.34,0.26,0.02,37.4,86.59,0
1110023.0,0.409,-0.362,-0.109,-40.52,-104.91,0
1110028.0,-0.342,0.33,0.061,43.49,79.9,0
1110033.0,0.45,-0.245,-0.102,-27.94,-102.75,0
1110038.0,-0.314,0.459,0.111,54.06,70.47,0
1110043.0,-0.108,-0.341,-0.186,-57.78,149.87,0
1110048.0,-0.074,0.28,0.073,69.58,45.5,0
1110053.0,-0.148,-0.341,-0.078,-63.79,117.69,0
1110058.0,-0.06,0.383,0.039,79.39,56.63,0
1110063.0,-0.081,-0.317,-0.21,-54.62,158.77,0
1110068.0,-0.05,0.272,0.008,79.4,80.63,0
1110073.0,0.069,-0.348,-0.14,-65.78,-153.64,0
1110078.0,-0.084,0.344,0.018,76.02,77.96,0
1110083.0,0.0,-0.211,-0.195,-47.26,-180.0,0
1110088.0,-0.043,0.299,0.032,79.79,53.2,0
1110093.0,-0.074,-0.379,0.032,-77.94,66.52,0
1110098.0,-0.117,0.366,0.073,69.31,58.13,0
1110103.0,-0.077,-0.242,-0.219,-46.23,160.73,0
1110108.0,-0.057,0.22,0.004,75.32,86.5,0
1110113.0,0.069,-0.353,-0.054,-75.99,-127.85,0
1110118.0,-0.014,0.272,0.066,76.12,12.32,0
1110123.0,0.101,-0.104,-0.123,-33.04,-140.82,0
1110128.0,-0.113,0.332,0.008,71.24,85.78,0
1110133.0,0.036,-0.41,-0.09,-76.72,-158.22,0
1110138.0,-0.089,0.22,0.078,61.79,48.73,0
1110143.0,0.0,-0.209,-0.075,-70.13,-180.0,0
1110148.0,-0.115,0.442,0.075,72.74,56.75,0
1110153.0,0.036,-0.24,0.025,-79.66,-55.09,0
1110158.0,-0.139,0.033,-0.066,12.1,115.39,0
1110163.0,0.134,-0.24,-0.121,-53.04,-132.06,0
1110168.0,-0.01,0.27,0.207,52.49,2.65,0
1110173.0,0.139,-0.001,0.056,-0.21,-67.97,0
1110178.0,-0.103,0.038,-0.143,12.12,144.16,0
1110183.0,0.172,-0.252,-0.054,-54.36,-107.38,0
1110188.0,-0.079,0.244,0.296,38.53,14.96,0
1110193.0,0.132,-0.072,-0.059,-26.66,-114.04,0
1110198.0,-0.103,0.201,-0.159,46.6,147.13,0
1110203.0,0.182,-0.42,-0.078,-64.74,-113.17,0
1110208.0,-0.136,0.289,0.051,63.24,69.36,0
1110213.0,0.065,-0.08,-0.066,-40.75,-135.56,0
1110218.0,-0.146,0.169,0.097,44.03,56.44,0
1110223.0,0.168,-0.245,0.224,-41.2,-36.83,0
1110228.0,-0.153,-0.01,0.118,-3.0,52.3,0
1110233.0,0.237,0.004,-0.111,0.93,-115.18,0
1110238.0,-0.17,0.129,0.013,37.05,85.6,0
1110243.0,0.239,-0.111,0.106,-22.9,-66.03,0
1110248.0,-0.091,0.114,0.066,45.53,54.14,0
1110253.0,0.196,-0.159,-0.222,-28.18,-138.45,0
1110258.0,-0.11,0.193,-0.042,58.64,110.87,0
1110263.0,0.182,-0.149,0.183,-30.0,-44.82,0
1110268.0,-0.122,0.04,0.14,12.19,41.1,0
1110273.0,0.129,-0.048,-0.025,-20.19,-101.04,0
1110278.0,-0.213,0.066,0.094,15.92,66.09,0
1110283.0,0.268,-0.044,0.104,-8.63,-68.79,0
1110288.0,-0.11,-0.041,0.02,-20.23,79.57,0
1110293.0,0.362,0.014,0.121,2.07,-71.52,0
1110298.0,-0.146,0.009,0.164,2.35,41.7,0
1110303.0,0.316,-0.053,0.121,-8.94,-69.08,0
1110308.0,-0.187,-0.001,-0.126,-0.14,123.96,0
1110313.0,0.22,0.047,0.042,11.92,-79.25,0
1110318.0,-0.223,-0.003,0.202,-0.56,47.75,0
1110323.0,0.271,-0.058,0.09,-11.51,-71.66,0
1110328.0,-0.239,-0.008,-0.047,-1.82,101.05,0
1110333.0,0.23,0.162,0.006,35.21,-88.53,0
1110338.0,-0.196,-0.163,0.085,-37.37,66.61,0
1110343.0,0.34,0.086,0.128,13.26,-69.37,0
1110348.0,-0.251,-0.216,-0.075,-39.46,106.72,0
1110353.0,0.354,0.205,-0.004,30.09,-90.59,0
1110358.0,-0.244,-0.087,0.027,-19.44,83.59,0
1110363.0,0.33,0.043,0.142,6.74,-66.69,0
1110368.0,-0.263,-0.077,-0.001,-16.33,90.28,0
1110373.0,0.218,0.148,0.116,30.93,-61.96,0
1110378.0,-0.225,-0.125,0.073,-27.86,72.04,0
1110383.0,0.283,0.126,0.152,21.5,-61.73,0
1110388.0,-0.225,-0.247,0.039,-47.25,80.06,0
1110393.0,0.455,0.27,0.159,29.26,-70.72,0
1110398.0,-0.175,-0.302,0.14,-53.46,51.31,0
1110403.0,0.464,0.186,0.238,19.63,-62.86,0
1110408.0,-0.184,-0.228,-0.025,-50.78,97.79,0
1110413.0,0.402,0.208,0.116,26.39,-73.91,0
1110418.0,-0.326,-0.185,0.011,-29.58,88.12,0
1110423.0,0.263,0.167,0.109,30.38,-67.54,0
1110428.0,-0.278,-0.297,0.02,-46.89,85.83,0
1110433.0,0.462,0.277,0.276,27.24,-59.11,0
1110438.0,-0.249,-0.283,0.049,-48.12,78.87,0
1110443.0,0.402,0.083,0.051,11.6,-82.72,0
1110448.0,-0.17,-0.288,-0.061,-57.89,109.78,0
1110453.0,0.457,0.239,-0.138,26.57,-106.76,0
1110458.0,-0.251,-0.183,0.169,-31.08,56.13,0
1110463.0,0.345,0.112,0.121,17.04,-70.69,0
1110468.0,-0.345,-0.297,-0.162,-37.99,115.13,0
1110473.0,0.505,0.349,0.348,29.63,-55.42,0
1110478.0,-0.326,-0.295,0.183,-38.3,60.65,0
1110483.0,0.431,0.239,0.006,29.0,-89.21,0
1110488.0,-0.208,-0.47,0.051,-65.46,76.14,0
1110493.0,0.479,-0.362,-0.028,-37.05,-93.3,0
1110498.0,-0.199,-0.312,0.011,-57.45,86.92,0
1110503.0,0.263,0.294,-0.126,45.2,-115.53,0
1110508.0,-0.242,-0.379,-0.032,-57.22,97.63,0
1110513.0,0.486,0.284,0.298,26.51,-58.49,0
1110518.0,-0.388,-0.367,-0.107,-42.37,105.37,0
1110523.0,0.306,0.28,0.025,42.28,-85.33,0
1110528.0,-0.239,-0.24,0.126,-41.59,62.32,0
1110533.0,0.414,-0.293,-0.25,-31.16,-121.14,0
1110538.0,-0.309,-0.393,-0.229,-45.65,126.52,0
1110543.0,0.45,0.387,0.035,40.63,-85.6,0
1110548.0,-0.247,-0.527,0.054,-64.42,77.7,0
1110553.0,0.512,0.438,0.26,37.3,-63.12,0
1110558.0,-0.369,-0.455,0.035,-50.89,84.63,0
1110563.0,0.388,0.43,-0.147,46.05,-110.8,0
1110568.0,-0.304,-0.429,0.066,-54.06,77.8,0
1110573.0,-0.278,-0.455,-0.253,-50.5,132.3,0
1110578.0,-0.405,-0.41,0.097,-44.58,76.53,0
1110583.0,0.498,0.38,-0.075,37.04,-98.62,0
1110588.0,-0.271,-0.494,-0.078,-60.31,106.06,0
1110593.0,0.522,0.445,-0.437,33.16,-129.94,0
1110598.0,-0.292,0.28,0.063,43.09,77.76,0
1110603.0,0.448,-0.293,0.008,-33.17,-88.94,0
1110608.0,-0.323,0.399,0.047,50.72,81.79,0
1110613.0,-0.242,-0.331,-0.245,-43.84,135.43,0
1110618.0,-0.321,0.359,0.159,45.04,63.62,0
1110623.0,0.357,-0.312,-0.14,-39.13,-111.45,0
1110628.0,-0.433,0.385,0.025,41.56,86.69,0
1110633.0,0.522,-0.333,-0.301,-28.96,-119.94,0
1110638.0,-0.385,0.296,-0.006,37.55,90.9,0
1110643.0,-0.158,-0.302,-0.195,-50.27,141.01,0
1110648.0,0.093,0.349,-0.059,72.46,-122.17,0
1110653.0,-0.089,-0.269,-0.234,-47.09,159.23,0
1110658.0,0.055,0.26,0.083,69.14,-33.72,0
1110663.0,-0.146,-0.266,-0.25,-42.58,149.73,0
1110668.0,-0.096,0.337,-0.08,69.66,129.97,0
1110673.0,-0.225,-0.317,-0.183,-47.49,129.15,0
1110678.0,-0.002,0.306,0.166,61.46,0.82,0
1110683.0,-0.153,-0.388,-0.176,-59.0,138.97,0
1110688.0,0.048,0.485,0.183,68.7,-14.66,0
1110693.0,-0.115,-0.386,-0.186,-60.51,148.24,0
1110698.0,0.122,0.392,-0.071,70.21,-120.07,0
1110703.0,-0.074,-0.348,-0.205,-57.94,160.08,0
1110708.0,0.024,0.43,0.207,64.16,-6.6,0
1110713.0,-0.081,-0.379,-0.243,-55.91,161.49,0
1110718.0,-0.062,0.292,-0.217,52.28,163.98,0
1110723.0,-0.165,-0.355,-0.138,-58.78,129.82,0
1110728.0,-0.038,0.337,0.169,62.83,12.79,0
1110733.0,-0.17,-0.223,-0.131,-46.16,127.53,0
1110738.0,-0.041,0.272,-0.143,61.44,164.06,0
1110743.0,-0.053,-0.238,-0.188,-50.58,164.35,0
1110748.0,0.01,0.272,0.097,70.33,-5.65,0
1110753.0,0.0,-0.384,-0.21,-61.35,-180.0,0
1110758.0,-0.002,0.373,-0.023,86.48,174.01,0
1110763.0,0.014,-0.214,-0.011,-85.18,-127.07,0
1110768.0,-0.019,0.28,0.13,64.76,8.36,0
1110773.0,-0.079,-0.314,-0.183,-57.58,156.68,0
1110778.0,-0.053,0.351,0.114,70.38,24.87,0
1110783.0,-0.079,-0.254,-0.013,-72.52,99.52,0
1110788.0,-0.086,0.359,-0.107,69.08,141.05,0
1110793.0,-0.041,-0.357,-0.262,-53.4,171.18,0
1110798.0,-0.048,0.351,0.078,75.44,31.63,0
1110803.0,0.019,-0.302,-0.09,-73.09,-167.97,0
1110808.0,-0.038,0.399,-0.15,68.84,165.65,0
1110813.0,-0.055,-0.527,-0.245,-64.49,167.36,0
1110818.0,-0.012,0.361,0.162,65.83,4.24,0
1110823.0,0.055,-0.353,0.159,-64.47,-19.09,0
1110828.0,-0.043,0.457,0.15,71.18,16.07,0
1110833.0,-0.012,-0.412,-0.183,-66.0,176.26,0
1110838.0,-0.022,0.28,0.056,77.85,20.98,0
1110843.0,0.038,-0.262,-0.008,-81.47,-102.45,0
1110848.0,-0.067,0.387,0.073,75.65,42.58,0
1110853.0,0.141,-0.369,-0.071,-66.84,-116.59,0
1110858.0,-0.077,0.227,-0.028,70.26,109.82,0
1110863.0,0.043,-0.278,-0.166,-58.29,-165.49,0
1110868.0,-0.055,0.363,0.056,77.78,44.42,0
1110873.0,-0.019,-0.273,0.013,-85.15,55.65,0
1110878.0,-0.038,0.27,0.073,73.03,27.71,0
1110883.0,0.029,-0.336,-0.047,-80.72,-148.44,0
1110888.0,-0.053,0.347,0.015,81.0,73.62,0
1110893.0,0.158,-0.281,-0.044,-59.68,-105.69,0
1110898.0,-0.16,0.193,0.056,48.69,70.7,0
1110903.0,0.136,-0.278,-0.008,-63.83,-93.55,0
1110908.0,-0.156,0.296,0.042,61.46,74.96,0
1110913.0,0.041,-0.154,-0.109,-52.89,-159.53,0
1110918.0,-0.01,0.15,0.114,52.8,4.82,0
1110923.0,0.079,-0.276,0.037,-72.45,-64.89,0
1110928.0,-0.098,0.22,-0.011,65.8,96.31,0
1110933.0,0.12,-0.223,-0.073,-57.86,-121.41,0
1110938.0,-0.187,0.193,0.087,43.17,64.94,0
1110943.0,0.098,-0.245,-0.028,-67.38,-105.71,0
1110948.0,-0.175,0.174,-0.138,38.06,128.24,0
1110953.0,0.101,-0.092,-0.035,-40.7,-109.09,0
1110958.0,-0.175,0.239,0.097,50.08,61.0,0
1110963.0,0.18,-0.309,-0.111,-55.67,-121.82,0
1110968.0,-0.182,0.21,-0.097,45.54,118.07,0
1110973.0,0.204,-0.178,-0.028,-40.87,-97.73,0
1110978.0,-0.141,0.203,0.15,44.61,43.37,0
1110983.0,0.227,-0.273,0.023,-50.11,-84.31,0
1110988.0,-0.134,0.138,0.068,42.6,63.05,0
1110993.0,0.215,-0.015,0.135,-3.36,-57.9,0
1110998.0,-0.184,0.09,0.056,25.13,73.05,0
1111003.0,0.244,-0.111,-0.011,-24.36,-92.54,0
1111008.0,-0.194,0.004,0.054,1.2,74.5,0
1111013.0,0.211,0.059,0.171,12.32,-50.92,0
1111018.0,-0.237,0.019,-0.054,4.37,102.82,0
1111023.0,0.23,-0.048,0.039,-11.74,-80.27,0
1111028.0,-0.098,0.11,0.116,35.79,40.23,0
1111033.0,0.275,-0.13,0.039,-25.02,-81.85,0
1111038.0,-0.101,0.047,-0.037,23.82,110.3,0
1111043.0,0.34,-0.06,0.059,-9.93,-80.22,0
1111048.0,-0.074,0.014,0.162,4.44,24.68,0
1111053.0,0.235,0.095,-0.195,17.32,-129.76,0
1111058.0,-0.208,-0.127,-0.008,-31.44,92.33,0
1111063.0,0.275,-0.005,0.037,-1.1,-82.34,0
1111068.0,-0.273,-0.056,0.059,-11.27,77.89,0
1111073.0,0.28,0.102,0.135,18.22,-64.24,0
1111078.0,-0.168,0.002,0.094,0.55,60.59,0
1111083.0,0.34,-0.111,0.238,-14.93,-54.99,0
1111088.0,-0.127,-0.001,0.135,-0.17,43.19,0
1111093.0,0.292,-0.221,-0.32,-27.02,-137.58,0
1111098.0,-0.18,-0.096,-0.059,-27.02,108.11,0
1111103.0,0.397,0.019,0.257,2.25,-57.08,0
1111108.0,-0.201,-0.089,0.154,-19.37,52.5,0
1111113.0,0.414,0.165,-0.006,21.68,-90.84,0
1111118.0,-0.28,-0.094,-0.095,-17.62,108.67,0
1111123.0,0.29,0.047,0.169,8.04,-59.78,0
1111128.0,-0.323,-0.12,0.109,-19.42,71.39,0
1111133.0,-0.249,-0.202,-0.245,-29.97,134.59,0
1111138.0,-0.263,-0.163,-0.032,-31.62,97.01,0
1111143.0,0.309,0.031,0.157,5.04,-63.09,0
1111148.0,-0.225,-0.295,0.071,-51.36,72.6,0
1111153.0,0.4,0.28,0.133,33.57,-71.63,0
1111158.0,-0.213,-0.149,-0.035,-34.61,99.27,0
1111163.0,0.383,0.119,-0.2,15.41,-117.57,0
1111168.0,-0.215,-0.197,0.111,-39.07,62.69,0
1111173.0,-0.268,-0.218,-0.231,-31.68,130.76,0
1111178.0,-0.302,-0.209,-0.123,-32.65,112.24,0
1111183.0,0.335,0.122,-0.339,14.31,-135.31,0
1111188.0,-0.227,-0.271,0.15,-44.88,56.67,0
1111193.0,0.448,0.332,-0.075,36.19,-99.57,0
1111198.0,-0.326,0.239,0.083,35.42,75.78,0
1111203.0,0.328,-0.254,-0.296,-29.94,-132.04,0
1111208.0,-0.271,0.246,-0.028,42.14,95.83,0
1111213.0,-0.129,-0.278,-0.049,-63.57,110.82,0
1111218.0,-0.278,0.327,0.181,44.66,56.95,0
1111223.0,0.429,-0.221,-0.289,-23.14,-123.96,0
1111228.0,-0.314,0.229,-0.066,35.58,101.87,0
1111233.0,0.381,-0.245,-0.296,-26.92,-127.85,0
1111238.0,-0.34,0.282,0.061,39.23,79.83,0
1111243.0,-0.223,-0.25,-0.111,-45.07,116.58,0
1111248.0,0.103,0.236,0.097,59.13,-46.74,0
1111253.0,-0.23,-0.264,-0.26,-37.26,138.51,0
1111258.0,0.182,0.28,-0.018,56.81,-95.66,0
1111263.0,-0.211,-0.206,-0.322,-28.21,146.81,0
1111268.0,0.096,0.311,-0.025,72.32,-104.75,0
1111273.0,-0.213,-0.36,-0.138,-54.8,122.88,0
1111278.0,0.148,0.325,0.181,54.27,-39.41,0
1111283.0,-0.335,-0.266,-0.265,-31.95,128.29,0
1111288.0,0.01,0.289,-0.061,77.92,-171.1,0
1111293.0,-0.275,-0.297,-0.2,-41.15,125.99,0
1111298.0,0.144,0.256,0.14,51.88,-45.74,0
1111303.0,-0.23,-0.273,-0.291,-36.41,141.69,0
1111308.0,-0.031,0.335,-0.19,60.03,170.72,0
1111313.0,-0.158,-0.341,-0.269,-47.47,149.61,0
1111318.0,0.113,0.306,0.044,68.43,-68.55,0
1111323.0,-0.283,-0.297,-0.387,-31.84,143.85,0
1111328.0,0.026,0.363,-0.059,79.95,-155.85,0
1111333.0,-0.122,-0.254,-0.052,-62.48,112.89,0
1111338.0,0.065,0.165,0.087,56.58,-36.52,0
1111343.0,-0.227,-0.25,-0.217,-38.46,133.62,0
1111348.0,0.0,0.387,0.068,80.02,0.0,0
1111353.0,-0.213,-0.221,-0.128,-41.61,121.03,0
1111358.0,0.067,0.265,-0.035,74.1,-117.43,0
1111363.0,-0.168,-0.321,-0.176,-52.9,136.41,0
1111368.0,0.103,0.318,0.214,53.22,-25.67,0
1111373.0,-0.204,-0.341,-0.351,-40.02,149.88,0
1111378.0,0.057,0.289,-0.212,52.78,-164.83,0
1111383.0,-0.18,-0.281,-0.198,-46.43,137.74,0
1111388.0,0.074,0.452,0.147,69.96,-26.76,0
1111393.0,-0.175,-0.41,-0.178,-58.65,135.6,0
1111398.0,-0.022,0.428,-0.052,82.56,157.32,0
1111403.0,-0.168,-0.482,-0.346,-51.41,154.16,0
1111408.0,0.026,0.469,0.078,80.07,-18.72,0
1111413.0,-0.158,-0.384,-0.087,-64.79,118.97,0
1111418.0,0.105,0.361,0.102,67.92,-46.02,0
1111423.0,-0.18,-0.336,-0.205,-50.95,138.75,0
1111428.0,0.036,0.39,0.056,80.29,-32.59,0
1111433.0,-0.148,-0.233,-0.073,-54.6,116.22,0
1111438.0,0.034,0.304,0.154,62.51,-12.25,0
1111443.0,-0.113,-0.36,-0.255,-52.22,156.19,0
1111448.0,-0.034,0.375,-0.116,72.14,163.91,0
1111453.0,-0.057,-0.312,0.001,-79.56,88.89,0
1111458.0,0.055,0.344,0.152,64.85,-19.92,0
1111463.0,-0.048,-0.254,-0.243,-45.75,168.86,0
1111468.0,0.019,0.344,-0.013,86.13,-124.67,0
1111473.0,-0.026,-0.355,-0.102,-73.49,165.5,0
1111478.0,0.031,0.275,0.042,79.26,-36.66,0
1111483.0,-0.144,-0.329,-0.133,-59.22,132.79,0
1111488.0,-0.043,0.414,0.075,78.15,29.77,0
1111493.0,-0.086,-0.285,-0.169,-56.41,152.96,0
1111498.0,-0.034,0.342,-0.068,77.45,153.86,0
1111503.0,-0.014,-0.333,-0.131,-68.49,173.72,0
1111508.0,-0.081,0.33,0.126,65.59,32.94,0
1111513.0,-0.007,-0.309,-0.126,-67.85,176.73,0
1111518.0,-0.005,0.284,0.114,68.2,2.41,0
1111523.0,-0.022,-0.372,-0.138,-69.44,171.11,0
1111528.0,-0.057,0.394,-0.011,81.57,100.7,0
1111533.0,-0.084,-0.369,-0.253,-54.21,161.65,0
1111538.0,-0.127,0.294,-0.064,64.23,116.59,0
1111543.0,-0.05,-0.305,-0.181,-58.36,164.46,0
1111548.0,-0.072,0.476,0.03,80.72,67.43,0
1111553.0,0.034,-0.329,-0.071,-76.6,-154.64,0
1111558.0,0.055,0.318,0.193,57.77,-15.95,0
1111563.0,-0.002,-0.41,-0.008,-88.77,164.2,0
1111568.0,-0.062,0.373,-0.016,80.23,104.11,0
1111573.0,-0.017,-0.211,-0.143,-55.81,173.29,0
1111578.0,-0.139,0.244,0.011,60.25,85.6,0
1111583.0,0.041,-0.245,-0.145,-58.41,-164.31,0
1111588.0,-0.182,0.244,-0.004,53.24,91.16,0
1111593.0,-0.007,-0.187,-0.174,-47.14,177.63,0
1111598.0,-0.077,0.229,-0.087,63.11,138.78,0
1111603.0,0.024,-0.314,-0.121,-68.57,-168.81,0
1111608.0,-0.144,0.399,0.015,70.11,83.85,0
1111613.0,0.062,-0.24,-0.109,-62.39,-150.27,0
1111618.0,-0.096,0.22,-0.047,64.12,116.03,0
1111623.0,0.11,-0.376,-0.095,-68.91,-130.68,0
1111628.0,-0.127,0.351,0.047,68.96,69.83,0
1111633.0,0.06,-0.18,0.159,-46.65,-20.61,0
1111638.0,-0.115,0.272,0.241,45.62,25.54,0
1111643.0,0.05,-0.341,-0.078,-74.77,-147.16,0
1111648.0,-0.139,0.349,-0.176,57.28,141.74,0
1111653.0,0.211,-0.345,-0.071,-57.24,-108.55,0
1111658.0,0.012,0.335,0.226,55.91,-3.03,0
1111663.0,0.204,-0.206,0.032,-45.06,-81.0,0
1111668.0,-0.091,0.179,-0.214,37.55,157.0,0
1111673.0,0.134,-0.147,-0.044,-46.07,-108.31,0
1111678.0,-0.163,0.167,0.209,32.2,37.86,0
1111683.0,0.096,-0.13,0.09,-44.7,-46.87,0
1111688.0,-0.194,0.177,-0.001,42.32,90.38,0
1111693.0,0.12,-0.194,-0.25,-35.03,-154.44,0
1111698.0,-0.084,0.217,0.14,53.1,30.91,0
1111703.0,0.192,-0.226,0.099,-46.28,-62.6,0
1111708.0,-0.084,0.265,-0.14,58.38,149.12,0
1111713.0,0.12,-0.273,-0.322,-38.52,-159.61,0
1111718.0,-0.199,0.157,-0.075,36.53,110.8,0
1111723.0,0.196,-0.209,0.3,-30.2,-33.17,0
1111728.0,-0.311,0.217,0.202,30.35,56.99,0
1111733.0,0.105,-0.271,-0.279,-42.27,-159.31,0
1111738.0,-0.299,0.055,-0.028,10.28,95.27,0
1111743.0,0.225,-0.137,0.121,-28.21,-61.77,0
1111748.0,-0.129,0.124,0.08,39.17,58.21,0
1111753.0,0.314,-0.044,0.047,-7.84,-81.55,0
1111758.0,-0.05,0.05,-0.109,22.5,155.24,0
1111763.0,0.28,-0.18,-0.322,-22.88,-138.99,0
1111768.0,-0.108,0.052,0.209,12.48,27.23,0
1111773.0,-0.4,-0.226,-0.075,-29.01,100.69,0
1111778.0,-0.311,0.083,0.011,14.96,88.03,0
1111783.0,0.122,-0.132,-0.214,-28.19,-150.33,0
1111788.0,-0.172,-0.015,0.145,-3.79,49.98,0
1111793.0,0.266,0.112,-0.159,19.87,-120.94,0
1111798.0,-0.268,-0.01,-0.008,-2.16,91.81,0
1111803.0,0.283,-0.333,-0.119,-47.41,-112.77,0
1111808.0,-0.175,0.256,0.19,44.7,42.57,0
1111813.0,-0.263,-0.326,-0.178,-45.72,124.12,0
1111818.0,-0.28,0.335,0.025,49.95,84.89,0
1111823.0,0.287,-0.254,-0.155,-37.94,-118.27,0
1111828.0,-0.206,0.145,0.147,29.89,54.45,0
1111833.0,0.201,-0.319,-0.121,-53.66,-121.03,0
1111838.0,-0.22,0.28,0.066,50.57,73.38,0
1111843.0,0.338,-0.159,-0.198,-22.07,-120.34,0
1111848.0,0.206,0.138,0.066,32.61,-72.29,0
1111853.0,-0.259,-0.166,-0.286,-23.26,137.9,0
1111858.0,0.182,0.191,-0.095,42.96,-117.48,0
1111863.0,-0.335,-0.178,-0.255,-22.88,127.27,0
1111868.0,0.141,0.234,0.044,57.69,-72.62,0
1111873.0,-0.378,-0.336,-0.279,-35.54,126.41,0
1111878.0,0.254,0.299,0.142,45.75,-60.71,0
1111883.0,-0.419,-0.211,-0.193,-24.61,114.71,0
1111888.0,0.089,0.299,0.047,71.47,-62.25,0
1111893.0,-0.211,-0.293,-0.147,-48.7,124.96,0
1111898.0,0.115,0.272,0.066,64.08,-60.22,0
1111903.0,-0.326,-0.252,-0.327,-28.64,135.11,0
1111908.0,0.136,0.205,-0.042,55.19,-107.1,0
1111913.0,-0.28,-0.228,-0.174,-34.68,121.8,0
1111918.0,0.251,0.213,0.169,35.07,-56.13,0
1111923.0,-0.335,-0.171,-0.198,-23.67,120.52,0
1111928.0,0.218,0.265,0.097,48.04,-66.03,0
1111933.0,-0.251,-0.321,-0.305,-39.1,140.53,0
1111938.0,0.189,0.294,-0.013,57.18,-94.01,0
1111943.0,-0.304,-0.321,-0.289,-37.48,133.5,0
1111948.0,0.072,0.38,0.059,76.3,-50.8,0
1111953.0,-0.278,-0.252,-0.164,-37.99,120.57,0
1111958.0,0.091,0.263,-0.008,70.83,-95.31,0
1111963.0,-0.354,-0.226,-0.291,-26.2,129.39,0
1111968.0,0.084,0.181,0.078,57.79,-47.15,0
1111973.0,-0.266,-0.159,-0.217,-24.82,129.2,0
1111978.0,0.136,0.222,-0.109,51.82,-128.62,0
1111983.0,-0.278,-0.185,-0.229,-27.2,129.47,0
1111988.0,0.132,0.256,0.075,59.31,-60.23,0
1111993.0,-0.156,-0.331,-0.152,-56.67,134.35,0
1111998.0,0.17,0.296,0.059,58.75,-70.99,0
1112003.0,-0.314,-0.305,-0.241,-37.61,127.5,0
1112008.0,0.036,0.318,-0.018,82.79,-116.67,0
1112013.0,-0.165,-0.264,-0.157,-49.2,133.52,0
1112018.0,0.103,0.311,0.073,67.9,-54.68,0
1112023.0,-0.232,-0.307,-0.348,-36.25,146.32,0
1112028.0,-0.036,0.232,-0.205,48.1,170.05,0
1112033.0,-0.204,-0.185,-0.097,-39.36,115.49,0
1112038.0,0.057,0.294,0.2,54.72,-16.04,0
1112043.0,-0.333,-0.214,-0.291,-25.79,131.16,0
1112048.0,0.18,0.28,-0.08,54.87,-114.09,0
1112053.0,-0.33,-0.247,-0.25,-30.81,127.14,0
1112058.0,0.084,0.292,0.049,71.58,-59.68,0
1112063.0,-0.254,-0.309,-0.214,-42.97,130.19,0
1112068.0,-0.026,0.292,0.063,76.75,22.57,0
1112073.0,-0.096,-0.329,-0.2,-55.99,154.41,0
1112078.0,0.002,0.344,0.023,86.21,-6.03,0
1112083.0,-0.196,-0.254,-0.234,-39.82,139.94,0
1112088.0,0.156,0.385,0.097,64.53,-58.1,0
1112093.0,-0.278,-0.405,-0.234,-48.15,130.06,0
1112098.0,0.151,0.306,0.018,63.59,-83.24,0
1112103.0,-0.201,-0.242,-0.183,-41.7,132.34,0
1112108.0,0.067,0.301,0.181,57.38,-20.36,0
1112113.0,-0.237,-0.278,-0.238,-39.62,135.15,0
1112118.0,0.045,0.162,0.001,74.33,-88.59,0
1112123.0,-0.091,-0.245,-0.085,-63.03,133.08,0
1112128.0,0.014,0.359,0.001,87.7,-85.55,0
1112133.0,-0.201,-0.283,-0.351,-34.99,150.18,0
1112138.0,0.024,0.28,0.063,76.38,-20.7,0
1112143.0,-0.139,-0.326,-0.123,-60.34,131.62,0
1112148.0,0.022,0.378,0.054,81.28,-21.83,0
1112153.0,-0.244,-0.333,-0.32,-39.65,142.63,0
1112158.0,0.029,0.318,0.032,82.26,-41.7,0
1112163.0,-0.117,-0.381,-0.032,-72.29,105.44,0
1112168.0,-0.072,0.514,0.056,79.94,51.97,0
1112173.0,-0.184,-0.405,-0.392,-43.11,154.79,0
1112178.0,0.036,0.301,-0.042,79.6,-139.45,0
1112183.0,-0.172,-0.364,-0.066,-63.14,110.93,0
1112188.0,0.11,0.433,0.202,61.98,-28.57,0
1112193.0,-0.11,-0.305,-0.14,-59.67,141.84,0
1112198.0,0.089,0.43,0.008,78.32,-84.65,0
1112203.0,-0.132,-0.333,-0.166,-57.51,141.66,0
1112208.0,-0.079,0.39,0.025,77.99,72.4,0
1112213.0,-0.101,-0.364,-0.109,-67.86,137.31,0
1112218.0,0.017,0.299,0.111,69.36,-8.57,0
1112223.0,-0.175,-0.353,-0.353,-41.81,153.67,0
1112228.0,-0.048,0.344,-0.128,68.32,159.51,0
1112233.0,-0.16,-0.319,-0.04,-62.62,103.86,0
1112238.0,0.045,0.318,0.138,65.49,-18.3,0
1112243.0,-0.031,-0.36,-0.241,-55.99,172.63,0
1112248.0,-0.041,0.385,-0.025,82.91,121.78,0
1112253.0,0.014,-0.293,-0.126,-66.61,-173.48,0
1112258.0,0.012,0.351,0.116,71.63,-5.89,0
1112263.0,-0.077,-0.345,-0.157,-63.18,153.97,0
1112268.0,-0.062,0.366,-0.061,76.58,134.48,0
1112273.0,-0.05,-0.35,-0.178,-62.1,164.26,0
1112278.0,-0.086,0.354,0.032,75.42,69.49,0
1112283.0,-0.067,-0.276,-0.152,-58.93,156.22,0
1112288.0,-0.134,0.38,0.032,70.06,76.48,0
1112293.0,-0.034,-0.319,-0.169,-61.64,168.77,0
1112298.0,-0.036,0.27,-0.032,79.84,132.06,0
1112303.0,-0.014,-0.317,-0.104,-71.62,172.15,0
1112308.0,0.041,0.485,0.2,67.21,-11.51,0
1112313.0,0.01,-0.355,-0.14,-68.41,-176.09,0
1112318.0,-0.01,0.282,-0.035,82.71,164.61,0
1112323.0,0.074,-0.355,0.001,-78.19,-89.14,0
1112328.0,-0.079,0.38,0.104,71.03,37.21,0
1112333.0,0.019,-0.427,-0.128,-73.11,-171.5,0
1112338.0,-0.062,0.203,0.092,61.29,34.06,0
1112343.0,0.017,-0.307,-0.068,-77.1,-166.22,0
1112348.0,-0.158,0.306,-0.157,53.95,134.8,0
1112353.0,0.036,-0.183,-0.169,-46.59,-167.99,0
1112358.0,-0.117,0.301,0.214,50.96,28.71,0
1112363.0,0.048,-0.415,-0.14,-70.35,-161.14,0
1112368.0,-0.041,0.428,0.106,75.09,20.92,0
1112373.0,-0.302,-0.285,-0.092,-42.14,107.0,0
1112378.0,-0.077,0.301,0.063,71.73,50.41,0
1112383.0,0.148,-0.329,-0.234,-49.9,-147.56,0
1112388.0,-0.113,0.306,0.152,58.28,36.52,0
1112393.0,0.215,-0.221,-0.159,-39.49,-126.47,0
1112398.0,-0.096,0.277,0.004,70.93,87.9,0
1112403.0,0.177,-0.424,-0.181,-59.18,-135.59,0
1112408.0,-0.06,0.268,0.123,62.89,25.91,0
1112413.0,-0.366,-0.341,-0.159,-40.45,113.5,0
1112418.0,-0.091,0.426,0.054,76.05,59.41,0
1112423.0,0.117,-0.364,-0.234,-54.36,-153.33,0
1112428.0,-0.055,0.275,0.094,68.3,30.23,0
1112433.0,0.113,-0.331,-0.085,-66.91,-127.09,0
1112438.0,-0.254,0.371,0.157,51.17,58.3,0
1112443.0,0.192,-0.341,-0.078,-58.73,-112.13,0
1112448.0,0.414,0.186,0.15,22.92,-70.15,0
1112453.0,-0.347,-0.25,-0.152,-33.36,113.66,0
1112458.0,0.342,0.27,0.037,38.1,-83.83,0
1112463.0,-0.378,-0.295,-0.267,-32.5,125.22,0
1112468.0,0.213,0.258,-0.013,50.39,-93.56,0
1112473.0,-0.409,-0.417,-0.135,-44.05,108.29,0
1112478.0,0.225,0.459,0.073,62.74,-72.04,0
1112483.0,-0.426,-0.422,-0.224,-41.23,117.72,0
1112488.0,0.347,0.327,0.174,40.15,-63.45,0
1112493.0,-0.259,-0.302,0.03,-49.26,83.42,0
1112498.0,0.208,0.306,-0.001,55.75,-90.35,0
1112503.0,-0.381,-0.264,-0.392,-25.79,135.81,0
1112508.0,0.271,0.241,0.123,39.06,-65.51,0
1112513.0,-0.354,-0.317,-0.078,-41.11,102.4,0
1112518.0,0.263,0.315,0.102,48.18,-68.89,0
1112523.0,-0.417,-0.362,-0.339,-33.99,129.13,0
1112528.0,0.271,0.251,0.063,42.07,-76.82,0
1112533.0,-0.273,-0.257,-0.097,-41.55,109.57,0
1112538.0,0.146,0.284,0.039,61.99,-74.89,0
1112543.0,-0.278,-0.319,-0.128,-46.2,114.77,0
1112548.0,0.213,0.26,0.035,50.34,-80.77,0
1112553.0,-0.326,-0.269,-0.375,-28.42,139.02,0
1112558.0,0.199,0.296,-0.059,55.03,-106.47,0
1112563.0,-0.369,-0.288,-0.078,-37.38,101.93,0
1112568.0,0.17,0.213,0.068,49.25,-68.15,0
1112573.0,-0.35,-0.23,-0.308,-26.32,131.36,0
1112578.0,0.345,0.311,0.2,37.94,-59.9,0
1112583.0,-0.35,-0.257,-0.073,-35.71,101.81,0
1112588.0,0.223,0.241,-0.059,46.33,-104.78,0
1112593.0,-0.225,-0.36,-0.296,-44.06,142.73,0
1112598.0,0.287,0.378,0.104,51.03,-70.09,0
1112603.0,-0.369,-0.293,-0.2,-34.9,118.48,0
1112608.0,0.115,0.318,-0.047,68.68,-112.14,0
1112613.0,-0.302,-0.345,-0.116,-46.89,111.07,0
1112618.0,0.065,0.232,0.001,74.41,-89.01,0
1112623.0,-0.455,-0.173,-0.353,-16.71,127.83,0
1112628.0,0.187,0.119,0.14,27.05,-53.15,0
1112633.0,-0.115,-0.171,0.085,-50.04,53.54,0
1112638.0,0.271,0.227,-0.03,39.81,-96.33,0
1112643.0,-0.242,-0.19,-0.432,-20.96,150.78,0
1112648.0,0.239,0.246,0.157,40.69,-56.79,0
1112653.0,-0.182,-0.295,0.015,-58.24,85.14,0
1112658.0,0.187,0.284,0.073,54.81,-68.66,0
1112663.0,-0.45,-0.233,-0.336,-22.5,126.78,0
1112668.0,0.069,0.332,0.008,78.11,-83.18,0
1112673.0,-0.294,-0.314,-0.126,-44.46,113.13,0
1112678.0,0.091,0.193,-0.02,64.26,-102.66,0
1112683.0,-0.302,-0.168,-0.313,-21.16,136.01,0
1112688.0,0.156,0.27,0.032,59.52,-78.3,0
1112693.0,-0.175,-0.259,-0.236,-41.43,143.47,0
1112698.0,0.182,0.198,-0.174,38.23,-133.66,0
1112703.0,-0.275,-0.154,-0.262,-22.02,133.61,0
1112708.0,0.127,0.265,0.135,55.04,-43.19,0
1112713.0,-0.259,-0.202,-0.236,-29.95,132.38,0
1112718.0,0.038,0.191,-0.119,56.87,-162.1,0
1112723.0,-0.335,-0.29,-0.193,-36.89,119.91,0
1112728.0,0.065,0.251,0.159,55.6,-22.11,0
1112733.0,-0.357,-0.214,-0.286,-25.04,128.74,0
1112738.0,0.117,0.308,-0.056,67.11,-115.65,0
1112743.0,-0.192,-0.209,-0.162,-39.8,130.17,0
1112748.0,0.105,0.181,0.025,59.17,-76.62,0
1112753.0,-0.172,-0.266,-0.463,-28.31,159.59,0
1112758.0,0.022,0.268,-0.145,61.3,-171.54,0
1112763.0,-0.271,-0.252,-0.234,-35.18,130.8,0
1112768.0,0.079,0.289,0.085,68.14,-42.94,0
1112773.0,-0.292,-0.326,-0.116,-46.06,111.69,0
1112778.0,0.077,0.308,0.126,64.49,-31.38,0
1112783.0,-0.323,-0.175,-0.281,-22.25,131.04,0
1112788.0,0.034,0.205,-0.071,69.14,-154.64,0
1112793.0,-0.275,-0.314,-0.26,-39.69,133.34,0
1112798.0,0.141,0.315,0.111,60.32,-51.78,0
1112803.0,-0.196,-0.278,-0.229,-42.71,139.36,0
1112808.0,0.074,0.306,-0.119,65.42,-147.96,0
1112813.0,-0.153,-0.321,-0.188,-52.96,140.82,0
1112818.0,0.101,0.394,0.135,66.87,-36.64,0
1112823.0,-0.297,-0.307,-0.336,-34.38,138.58,0
1112828.0,-0.043,0.371,-0.03,81.93,124.85,0
1112833.0,-0.266,-0.372,-0.071,-53.5,104.9,0
1112838.0,0.089,0.277,0.128,60.68,-34.68,0
1112843.0,-0.251,-0.25,-0.224,-36.55,131.69,0
1112848.0,0.048,0.359,-0.006,82.33,-97.22,0
1112853.0,-0.069,-0.343,-0.224,-55.64,162.77,0
1112858.0,0.089,0.265,0.092,64.27,-43.89,0
1112863.0,-0.117,-0.211,-0.107,-53.11,132.27,0
1112868.0,0.103,0.371,0.195,59.24,-27.83,0
1112873.0,-0.16,-0.386,-0.284,-49.82,150.52,0
1112878.0,0.103,0.246,-0.085,61.51,-129.57,0
1112883.0,-0.144,-0.309,-0.092,-61.11,122.71,0
1112888.0,-0.038,0.445,0.106,75.73,19.79,0
1112893.0,-0.163,-0.276,-0.083,-56.5,116.92,0
1112898.0,-0.019,0.248,0.03,81.88,32.69,0
1112903.0,-0.177,-0.278,-0.212,-45.21,140.11,0
1112908.0,-0.012,0.306,-0.083,74.72,171.76,0
1112913.0,-0.129,-0.235,-0.212,-43.45,148.62,0
1112918.0,0.069,0.323,0.142,63.85,-26.0,0
1112923.0,-0.045,-0.341,-0.102,-71.87,155.93,0
1112928.0,-0.034,0.426,-0.087,77.59,159.03,0
1112933.0,-0.096,-0.376,-0.056,-73.56,120.47,0
1112938.0,0.117,0.32,0.226,51.5,-27.42,0
1112943.0,-0.156,-0.36,-0.164,-57.84,136.52,0
1112948.0,-0.05,0.373,-0.099,73.36,153.18,0
1112953.0,-0.103,-0.29,-0.114,-62.13,137.87,0
1112958.0,0.017,0.342,0.049,81.38,-18.88,0
1112963.0,-0.084,-0.386,-0.19,-61.68,156.25,0
1112968.0,-0.041,0.394,0.212,61.33,10.88,0
1112973.0,-0.376,-0.424,-0.013,-48.45,92.02,0
1112978.0,0.031,0.38,0.178,64.54,-9.9,0
1112983.0,-0.055,-0.424,-0.128,-71.8,156.75,0
1112988.0,0.01,0.414,0.094,77.07,-5.79,0
1112993.0,-0.012,-0.412,-0.107,-75.42,173.59,0
1112998.0,0.067,0.497,0.193,67.7,-19.19,0
1113003.0,-0.036,-0.4,-0.059,-80.24,148.56,0
1113008.0,-0.053,0.304,0.236,51.48,12.59,0
1113013.0,-0.426,-0.396,-0.183,-40.46,113.27,0
1113018.0,0.002,0.517,0.178,70.96,-0.77,0
1113023.0,0.031,-0.477,-0.052,-82.8,-148.88,0
1113028.0,-0.074,0.404,0.085,74.4,41.16,0
1113033.0,-0.038,-0.372,-0.143,-68.34,164.96,0
1113038.0,-0.012,0.373,0.202,61.49,3.39,0
1113043.0,-0.084,-0.542,-0.133,-73.82,147.78,0
1113048.0,-0.055,0.366,0.087,74.24,32.24,0
1113053.0,-0.393,-0.35,-0.111,-40.62,105.84,0
1113058.0,0.409,0.49,0.138,48.62,-71.42,0
1113063.0,-0.429,-0.539,-0.178,-49.28,112.61,0
1113068.0,0.529,0.481,0.279,38.79,-62.21,0
1113073.0,-0.311,-0.453,-0.018,-55.47,93.32,0
1113078.0,0.388,0.454,0.03,49.43,-85.6,0
1113083.0,-0.433,-0.609,-0.135,-53.28,107.35,0
1113088.0,0.438,0.433,0.248,40.69,-60.52,0
1113093.0,-0.29,-0.424,-0.004,-55.68,90.73,0
1113098.0,0.314,0.442,0.094,53.48,-73.23,0
1113103.0,-0.462,-0.441,-0.207,-41.06,114.15,0
1113108.0,0.39,0.272,0.202,31.79,-62.61,0
1113113.0,-0.381,-0.341,-0.109,-40.69,105.98,0
1113118.0,0.347,0.445,0.147,49.71,-67.03,0
1113123.0,-0.424,-0.503,-0.138,-48.48,108.01,0
1113128.0,0.462,0.363,0.171,36.41,-69.68,0
1113133.0,-0.371,-0.448,-0.224,-45.96,121.11,0
1113138.0,0.244,0.471,-0.025,62.47,-95.9,0
1113143.0,-0.357,-0.374,-0.188,-42.85,117.79,0
1113148.0,0.242,0.28,0.097,47.02,-68.17,0
1113153.0,-0.364,-0.3,-0.123,-37.96,108.73,0
1113158.0,0.378,0.248,0.262,28.36,-55.28,0
1113163.0,-0.484,-0.35,-0.183,-34.1,110.75,0
1113168.0,0.467,0.26,0.047,29.03,-84.3,0
1113173.0,-0.29,-0.381,-0.104,-51.08,109.79,0
1113178.0,0.287,0.469,0.166,54.69,-59.93,0
1113183.0,-0.345,-0.412,-0.152,-47.58,113.81,0
1113188.0,0.412,0.39,0.15,41.65,-70.04,0
1113193.0,-0.309,-0.46,-0.205,-51.16,123.55,0
1113198.0,0.235,0.354,-0.037,56.12,-99.01,0
1113203.0,-0.309,-0.369,-0.155,-46.92,116.58,0
1113208.0,0.283,0.301,0.164,42.67,-59.88,0
1113213.0,-0.364,-0.317,-0.119,-39.6,108.05,0
1113218.0,0.29,0.217,0.032,36.71,-83.65,0
1113223.0,-0.469,-0.326,-0.308,-30.17,123.26,0
1113228.0,0.318,0.315,0.063,44.18,-78.75,0
1113233.0,-0.376,-0.238,-0.15,-30.42,111.72,0
1113238.0,0.227,0.21,0.032,42.45,-81.93,0
1113243.0,-0.35,-0.309,-0.169,-38.56,115.79,0
1113248.0,0.287,0.306,0.193,41.49,-56.16,0
1113253.0,-0.314,-0.235,-0.114,-35.18,109.94,0
1113258.0,0.273,0.222,0.006,39.13,-88.76,0
1113263.0,-0.311,-0.317,-0.162,-42.07,117.45,0
1113268.0,0.338,0.248,0.181,32.98,-61.84,0
1113273.0,-0.314,-0.269,-0.26,-33.41,129.64,0
1113278.0,0.278,0.327,0.03,49.53,-83.87,0
1113283.0,-0.376,-0.278,-0.217,-32.67,119.97,0
1113288.0,0.184,0.246,-0.032,52.74,-99.97,0
1113293.0,-0.28,-0.341,-0.253,-42.07,132.05,0
1113298.0,0.148,0.323,0.154,56.43,-43.88,0
1113303.0,-0.278,-0.211,-0.04,-36.98,98.11,0
1113308.0,0.223,0.217,0.097,41.83,-66.48,0
1113313.0,-0.352,-0.343,-0.262,-38.0,126.69,0
1113318.0,0.18,0.248,0.056,52.86,-72.63,0
1113323.0,-0.273,-0.147,-0.075,-27.37,105.46,0
1113328.0,0.199,0.215,0.104,43.77,-62.36,0
1113333.0,-0.302,-0.25,-0.298,-30.47,134.66,0
1113338.0,0.23,0.16,-0.032,34.55,-98.02,0
1113343.0,-0.357,-0.12,-0.21,-16.21,120.43,0
1113348.0,0.153,0.294,-0.028,62.09,-100.22,0
1113353.0,-0.283,-0.35,-0.301,-40.32,136.77,0
1113358.0,0.175,0.272,0.09,54.2,-62.83,0
1113363.0,-0.323,-0.355,-0.214,-42.46,123.55,0
1113368.0,0.108,0.299,0.035,69.25,-72.18,0
1113373.0,-0.326,-0.19,-0.186,-26.85,119.69,0
1113378.0,0.18,0.294,0.073,56.6,-67.89,0
1113383.0,-0.256,-0.142,-0.195,-23.76,127.31,0
1113388.0,0.175,0.11,0.056,30.83,-72.18,0
1113393.0,-0.215,-0.209,-0.109,-40.86,116.84,0
1113398.0,0.259,0.294,0.154,44.31,-59.17,0
1113403.0,-0.335,-0.273,-0.272,-32.36,129.04,0
1113408.0,0.177,0.215,-0.004,50.49,-91.19,0
1113413.0,-0.213,-0.245,-0.085,-46.85,111.76,0
1113418.0,0.12,0.253,0.224,44.94,-28.14,0
1113423.0,-0.304,-0.18,-0.157,-27.76,117.29,0
1113428.0,0.081,0.265,-0.054,69.78,-123.53,0
1113433.0,-0.304,-0.271,-0.25,-34.54,129.46,0
1113438.0,0.225,0.323,0.106,52.35,-64.68,0
1113443.0,-0.299,-0.273,-0.265,-34.4,131.49,0
1113448.0,0.177,0.246,-0.037,53.66,-101.85,0
1113453.0,-0.184,-0.309,-0.212,-47.76,138.99,0
1113458.0,0.192,0.256,0.099,49.84,-62.6,0
1113463.0,-0.302,-0.202,-0.202,-29.04,123.86,0
1113468.0,-0.105,0.236,-0.068,62.03,122.96,0
1113473.0,-0.263,-0.206,-0.095,-36.42,109.77,0
1113478.0,0.134,0.265,0.106,57.16,-51.55,0
1113483.0,-0.342,-0.192,-0.255,-24.22,126.69,0
1113488.0,0.086,0.246,-0.075,65.03,-131.22,0
1113493.0,-0.218,-0.221,0.056,-44.46,75.54,0
1113498.0,0.122,0.359,0.09,67.09,-53.7,0
1113503.0,-0.196,-0.35,-0.229,-49.27,139.36,0
1113508.0,0.045,0.253,-0.14,59.81,-162.02,0
1113513.0,-0.208,-0.379,-0.241,-49.96,139.13,0
1113518.0,0.103,0.361,0.169,61.3,-31.39,0
1113523.0,-0.263,-0.197,-0.119,-34.28,114.24,0
1113528.0,0.074,0.246,0.008,73.12,-83.62,0
1113533.0,-0.122,-0.343,0.056,-68.6,65.29,0
1113538.0,0.022,0.308,0.118,68.67,-10.31,0
1113543.0,-0.172,-0.259,-0.322,-35.35,151.85,0
1113548.0,0.053,0.236,0.025,76.14,-64.56,0
1113553.0,-0.213,-0.273,-0.155,-46.1,125.95,0
1113558.0,0.136,0.387,-0.006,70.57,-92.54,0
1113563.0,-0.225,-0.25,-0.255,-36.27,138.58,0
1113568.0,0.041,0.323,0.025,81.57,-58.38,0
1113573.0,-0.309,-0.477,0.02,-57.02,86.24,0
1113578.0,0.024,0.284,0.181,57.34,-7.55,0
1113583.0,-0.266,-0.245,0.025,-42.52,84.61,0
1113588.0,0.01,0.306,0.217,54.67,-2.53,0
1113593.0,-0.113,-0.393,-0.14,-65.44,141.24,0
1113598.0,-0.057,0.337,0.128,67.4,24.17,0
1113603.0,-0.151,-0.262,0.097,-55.57,57.29,0
1113608.0,0.024,0.416,0.231,60.83,-5.92,0
1113613.0,-0.388,-0.439,-0.186,-45.57,115.58,0
1113618.0,0.041,0.418,0.13,71.92,-17.33,0
1113623.0,-0.163,-0.496,0.027,-71.59,80.43,0
1113628.0,-0.05,0.442,0.229,62.12,12.41,0
1113633.0,-0.196,-0.451,-0.085,-64.6,113.43,0
1113638.0,-0.022,0.378,0.262,55.15,4.7,0
1113643.0,-0.11,-0.508,0.037,-77.12,71.42,0
1113648.0,0.014,0.359,0.063,79.73,-12.77,0
1113653.0,-0.34,-0.417,-0.217,-45.97,122.52,0
1113658.0,0.397,0.416,0.229,42.22,-60.1,0
1113663.0,-0.321,-0.453,0.044,-54.44,82.15,0
1113668.0,0.443,0.438,0.14,43.29,-72.46,0
1113673.0,-0.378,-0.489,-0.26,-46.82,124.49,0
1113678.0,0.45,0.497,0.279,43.21,-58.22,0
1113683.0,-0.491,-0.621,-0.025,-51.63,92.94,0
1113688.0,0.488,0.488,0.035,44.9,-85.94,0
1113693.0,-0.299,-0.494,-0.09,-57.67,106.71,0
1113698.0,0.45,0.45,0.365,37.8,-50.96,0
1113703.0,-0.321,-0.482,0.018,-56.3,86.81,0
1113708.0,0.457,0.442,0.094,43.45,-78.33,0
1113713.0,-0.297,-0.491,-0.016,-58.82,93.02,0
1113718.0,0.469,0.502,0.353,40.54,-53.04,0
1113723.0,-0.467,-0.587,-0.15,-50.14,107.78,0
1113728.0,0.453,0.421,0.183,40.76,-67.97,0
1113733.0,-0.388,-0.381,-0.006,-44.5,90.9,0
1113738.0,0.378,0.473,0.138,49.63,-70.01,0
1113743.0,-0.314,-0.482,-0.238,-50.73,127.23,0
1113748.0,0.455,0.38,0.188,37.68,-67.56,0
1113753.0,-0.321,-0.522,0.011,-58.43,88.09,0
1113758.0,0.419,0.421,0.039,45.0,-84.62,0
1113763.0,-0.5,-0.463,-0.202,-40.6,112.02,0
1113768.0,0.376,0.442,0.164,47.17,-66.44,0
1113773.0,-0.366,-0.396,-0.099,-46.18,105.19,0
1113778.0,0.35,0.416,0.085,49.15,-76.35,0
1113783.0,-0.438,-0.525,-0.064,-49.85,98.25,0
1113788.0,0.45,0.39,0.214,38.02,-64.55,0
1113793.0,-0.421,-0.484,-0.169,-46.85,111.84,0
1113798.0,0.35,0.423,0.102,49.3,-73.78,0
1113803.0,-0.383,-0.434,-0.186,-45.55,115.85,0
1113808.0,0.555,0.378,0.166,33.08,-73.33,0
1113813.0,-0.328,-0.458,-0.128,-52.43,111.34,0
1113818.0,0.376,0.378,0.114,43.89,-73.18,0
1113823.0,-0.261,-0.386,-0.064,-55.17,103.68,0
1113828.0,0.345,0.28,0.197,35.13,-60.2,0
1113833.0,-0.287,-0.324,0.015,-48.37,86.92,0
1113838.0,0.271,0.363,0.193,47.57,-54.55,0
1113843.0,-0.414,-0.424,-0.166,-43.55,111.9,0
1113848.0,0.402,0.373,0.133,41.36,-71.73,0
1113853.0,-0.433,-0.42,-0.133,-42.79,107.06,0
1113858.0,0.378,0.325,0.023,40.62,-86.57,0
1113863.0,-0.457,-0.436,-0.217,-40.77,115.36,0
1113868.0,0.357,0.332,0.171,40.02,-64.38,0
1113873.0,-0.287,-0.319,-0.075,-47.04,104.72,0
1113878.0,0.189,0.325,0.042,59.21,-77.53,0
1113883.0,-0.46,-0.448,-0.387,-36.73,130.07,0
1113888.0,0.424,0.392,0.162,40.85,-69.13,0
1113893.0,-0.287,-0.405,-0.016,-54.62,93.12,0
1113898.0,0.369,0.514,0.159,52.01,-66.65,0
1113903.0,-0.388,-0.546,-0.262,-49.41,124.06,0
1113908.0,0.357,0.378,0.145,44.45,-67.91,0
1113913.0,-0.359,-0.353,-0.054,-44.15,98.54,0
1113918.0,0.218,0.325,0.044,55.63,-78.53,0
1113923.0,-0.357,-0.329,-0.222,-38.04,121.84,0
1113928.0,0.299,0.177,0.13,28.41,-66.46,0
1113933.0,-0.388,-0.228,-0.116,-29.39,106.68,0
1113938.0,0.345,0.323,0.15,40.65,-66.55,0
1113943.0,-0.39,-0.252,-0.178,-30.42,114.57,0
1113948.0,0.28,0.215,-0.037,37.26,-97.56,0
1113953.0,-0.278,-0.317,-0.313,-37.13,138.37,0
1113958.0,0.237,0.22,0.044,42.34,-79.43,0
1113963.0,-0.419,-0.23,-0.138,-27.58,108.2,0
1113968.0,0.271,0.308,0.142,45.24,-62.24,0
1113973.0,-0.304,-0.336,-0.193,-43.0,122.38,0
1113978.0,0.297,0.301,0.14,42.53,-64.76,0
1113983.0,-0.402,-0.372,-0.126,-41.41,107.36,0
1113988.0,0.318,0.277,0.083,40.12,-75.47,0
1113993.0,-0.285,-0.324,-0.188,-43.49,123.42,0
1113998.0,0.283,0.292,0.094,44.38,-71.51,0
1114003.0,-0.304,-0.338,-0.265,-39.99,131.03,0
1114008.0,0.218,0.229,0.037,46.05,-80.35,0
1114013.0,-0.184,-0.238,0.023,-51.98,82.99,0
1114018.0,0.294,0.347,0.281,40.4,-46.32,0
1114023.0,-0.414,-0.343,-0.291,-34.12,125.09,0
1114028.0,0.251,0.213,-0.02,40.12,-94.65,0
1114033.0,-0.316,-0.226,-0.162,-32.44,117.1,0
1114038.0,0.187,0.318,0.047,58.8,-75.99,0
1114043.0,-0.33,-0.25,-0.253,-30.96,127.41,0
1114048.0,0.187,0.16,-0.018,40.43,-95.52,0
1114053.0,-0.328,-0.271,-0.322,-30.53,134.48,0
1114058.0,0.17,0.203,0.037,49.4,-77.71,0
1114063.0,-0.431,-0.18,-0.171,-21.23,111.67,0
1114068.0,0.201,0.227,0.212,37.84,-43.52,0
1114073.0,-0.237,-0.269,-0.087,-46.76,110.26,0
1114078.0,0.223,0.38,0.042,59.2,-79.36,0
1114083.0,-0.218,-0.317,-0.097,-53.01,114.01,0
1114088.0,0.287,0.327,0.106,46.9,-69.67,0
1114093.0,-0.153,-0.372,-0.044,-66.77,106.15,0
1114098.0,0.306,0.282,0.054,42.18,-80.04,0
1114103.0,-0.364,-0.262,-0.212,-31.84,120.22,0
1114108.0,0.115,0.213,0.109,53.32,-46.55,0
1114113.0,-0.326,-0.197,-0.159,-28.51,116.07,0
1114118.0,0.103,0.248,0.068,63.57,-56.49,0
1114123.0,-0.29,-0.266,-0.157,-38.95,118.44,0
1114128.0,0.165,0.282,0.03,59.23,-79.76,0
1114133.0,-0.213,-0.307,0.006,-55.23,88.41,0
1114138.0,0.189,0.27,-0.04,54.41,-101.82,0
1114143.0,-0.275,-0.206,-0.265,-28.4,133.87,0
1114148.0,0.113,0.236,0.013,64.4,-83.37,0
1114153.0,-0.316,-0.192,-0.186,-27.66,120.43,0
1114158.0,0.113,0.145,0.051,49.63,-65.45,0
1114163.0,-0.457,-0.187,-0.313,-18.68,124.35,0
1114168.0,0.005,0.217,-0.054,76.01,-174.93,0
1114173.0,-0.299,-0.226,0.106,-35.38,70.42,0
1114178.0,0.204,0.253,0.104,47.93,-62.92,0
1114183.0,-0.266,-0.197,-0.143,-33.14,118.21,0
1114188.0,0.079,0.26,0.157,56.02,-26.75,0
1114193.0,-0.156,-0.278,0.226,-45.39,34.53,0
1114198.0,0.136,0.224,0.291,34.95,-25.14,0
1114203.0,-0.417,-0.242,-0.08,-29.74,100.91,0
1114208.0,0.096,0.284,0.011,71.28,-83.63,0
1114213.0,-0.232,-0.271,0.054,-48.67,76.96,0
1114218.0,0.079,0.368,0.367,44.41,-12.14,0
1114223.0,-0.283,-0.484,0.032,-59.58,83.49,0
1114228.0,0.036,0.397,0.164,67.08,-12.36,0
1114233.0,-0.28,-0.362,0.001,-52.27,89.77,0
1114238.0,0.086,0.315,0.13,63.64,-33.46,0
1114243.0,-0.254,-0.441,-0.116,-57.67,114.6,0
1114248.0,0.053,0.308,0.195,56.76,-15.11,0
1114253.0,-0.294,-0.309,0.109,-44.58,69.71,0
1114258.0,0.199,0.318,0.109,54.52,-61.29,0
1114263.0,-0.335,-0.46,-0.15,-51.42,114.07,0
1114268.0,0.443,0.342,0.221,34.62,-63.44,0
1114273.0,-0.266,-0.364,0.097,-52.19,69.97,0
1114278.0,0.419,0.344,0.236,35.6,-60.63,0
1114283.0,-0.297,-0.467,0.099,-56.19,71.51,0
1114288.0,0.527,0.426,0.193,37.19,-69.91,0
1114293.0,-0.302,-0.355,-0.133,-47.11,113.79,0
1114298.0,0.419,0.347,0.087,39.0,-78.23,0
1114303.0,-0.275,-0.465,0.051,-58.94,79.43,0
1114308.0,0.488,0.469,0.248,40.56,-63.11,0
1114313.0,-0.33,-0.417,-0.099,-50.4,106.75,0
1114318.0,0.429,0.43,0.19,42.55,-66.06,0
1114323.0,-0.35,-0.585,-0.068,-58.65,101.06,0
1114328.0,0.464,0.481,0.219,43.11,-64.76,0
1114333.0,-0.318,-0.453,0.073,-54.21,77.1,0
1114338.0,0.424,0.433,0.264,40.91,-58.03,0
1114343.0,-0.28,-0.477,-0.016,-59.54,93.2,0
1114348.0,0.51,0.45,0.205,39.29,-68.14,0
1114353.0,-0.347,-0.405,-0.04,-49.23,96.5,0
1114358.0,0.52,0.411,0.262,35.25,-63.23,0
1114363.0,-0.397,-0.621,-0.09,-56.71,102.74,0
1114368.0,0.453,0.452,0.078,44.55,-80.25,0
1114373.0,-0.237,-0.405,0.006,-59.66,88.57,0
1114378.0,0.378,0.433,0.241,43.99,-57.55,0
1114383.0,-0.417,-0.582,-0.131,-53.14,107.4,0
1114388.0,0.433,0.435,0.097,44.42,-77.4,0
1114393.0,-0.362,-0.417,0.011,-49.07,88.31,0
1114398.0,0.464,0.5,0.281,42.63,-58.81,0
1114403.0,-0.385,-0.587,-0.145,-54.95,110.61,0
1114408.0,0.534,0.363,0.078,33.96,-81.72,0
1114413.0,-0.283,-0.379,-0.078,-52.28,105.41,0
1114418.0,0.405,0.497,0.133,49.43,-71.83,0
1114423.0,-0.414,-0.542,-0.114,-51.58,105.36,0
1114428.0,0.417,0.409,0.142,42.88,-71.13,0
1114433.0,-0.448,-0.484,-0.155,-45.63,109.04,0
1114438.0,0.388,0.399,0.166,43.41,-66.79,0
1114443.0,-0.457,-0.434,-0.008,-43.49,91.06,0
1114448.0,0.46,0.347,0.284,32.69,-58.32,0
1114453.0,-0.275,-0.42,-0.128,-54.1,114.96,0
1114458.0,0.448,0.356,0.073,38.14,-80.75,0
1114463.0,-0.364,-0.455,-0.166,-48.7,114.58,0
1114468.0,0.503,0.392,0.171,36.44,-71.21,0
1114473.0,-0.357,-0.475,-0.183,-49.8,117.19,0
1114478.0,0.256,0.416,0.169,53.6,-56.63,0
1114483.0,-0.388,-0.496,0.061,-51.64,81.07,0
1114488.0,0.378,0.406,0.25,41.87,-56.53,0
1114493.0,-0.407,-0.465,-0.212,-45.38,117.51,0
1114498.0,0.354,0.39,0.047,47.48,-82.51,0
1114503.0,-0.306,-0.508,-0.097,-57.68,107.57,0
1114508.0,0.464,0.308,0.164,32.04,-70.56,0
1114513.0,-0.321,-0.405,-0.133,-49.4,112.51,0
1114518.0,0.359,0.5,0.138,52.42,-69.04,0
1114523.0,-0.376,-0.475,-0.059,-51.28,98.88,0
1114528.0,0.395,0.342,0.121,39.6,-72.99,0
1114533.0,-0.453,-0.458,-0.238,-41.84,117.77,0
1114538.0,0.309,0.368,0.109,48.35,-70.58,0
1114543.0,-0.283,-0.453,-0.006,-58.05,91.23,0
1114548.0,0.429,0.359,0.219,36.69,-62.93,0
1114553.0,-0.352,-0.408,-0.255,-43.16,125.93,0
1114558.0,0.376,0.404,0.083,46.4,-77.62,0
1114563.0,-0.4,-0.398,0.042,-44.71,84.03,0
1114568.0,0.381,0.411,0.219,43.12,-60.09,0
1114573.0,-0.397,-0.403,-0.135,-43.81,108.81,0
1114578.0,0.34,0.313,0.063,42.15,-79.44,0
1114583.0,-0.237,-0.403,-0.159,-54.66,123.9,0
1114588.0,0.316,0.294,0.178,39.01,-60.57,0
1114593.0,-0.311,-0.221,-0.102,-33.99,108.12,0
1114598.0,0.414,0.337,0.114,38.12,-74.66,0
1114603.0,-0.457,-0.475,-0.236,-42.69,117.29,0
1114608.0,0.266,0.347,0.094,50.86,-70.43,0
1114613.0,-0.376,-0.348,-0.121,-41.37,107.84,0
1114618.0,0.22,0.502,0.202,59.23,-47.44,0
1114623.0,-0.412,-0.484,-0.217,-46.14,117.76,0
1114628.0,0.378,0.208,0.018,28.75,-87.29,0
1114633.0,-0.338,-0.307,-0.099,-41.1,106.41,0
1114638.0,0.311,0.45,0.145,52.64,-65.06,0
1114643.0,-0.417,-0.293,-0.269,-30.54,122.89,0
1114648.0,0.311,0.21,-0.044,33.76,-98.11,0
1114653.0,-0.373,-0.288,-0.174,-34.95,114.94,0
1114658.0,0.223,0.287,0.118,48.67,-61.99,0
1114663.0,-0.397,-0.257,-0.171,-30.68,113.31,0
1114668.0,0.309,0.241,0.083,37.04,-75.04,0
1114673.0,-0.417,-0.379,-0.126,-41.04,106.8,0
1114678.0,0.347,0.406,0.164,46.63,-64.72,0
1114683.0,-0.359,-0.336,-0.174,-40.09,115.81,0
1114688.0,0.357,0.32,0.128,40.2,-70.26,0
1114693.0,-0.215,-0.391,-0.116,-57.94,118.34,0
1114698.0,0.287,0.318,0.121,45.56,-67.19,0
1114703.0,-0.254,-0.374,-0.19,-49.69,126.88,0
1114708.0,0.225,0.359,0.092,55.86,-67.74,0
1114713.0,-0.328,-0.278,-0.164,-37.19,116.58,0
1114718.0,0.244,0.232,0.059,42.69,-76.51,0
1114723.0,-0.381,-0.259,-0.174,-31.77,114.52,0
1114728.0,0.206,0.222,0.118,43.08,-60.09,0
1114733.0,-0.323,-0.283,0.02,-41.16,86.41,0
1114738.0,0.139,0.306,-0.037,64.83,-104.99,0
1114743.0,-0.35,-0.242,-0.286,-28.21,129.31,0
1114748.0,0.208,0.241,-0.018,49.09,-94.95,0
1114753.0,-0.376,-0.202,-0.15,-26.49,111.72,0
1114758.0,0.136,0.203,-0.068,53.06,-116.59,0
1114763.0,-0.352,-0.362,-0.411,-33.8,139.4,0
1114768.0,0.206,0.296,0.097,52.48,-64.8,0
1114773.0,-0.239,-0.034,0.116,-7.3,64.14,0
1114778.0,0.259,0.337,-0.059,51.81,-102.8,0
1114783.0,-0.34,-0.233,-0.133,-32.53,111.36,0
1114788.0,0.225,0.186,0.145,34.83,-57.25,0
1114793.0,-0.218,-0.25,0.027,-48.65,82.82,0
1114798.0,0.172,0.277,0.061,56.59,-70.52,0
1114803.0,-0.271,-0.283,-0.008,-46.28,91.79,0
1114808.0,0.17,0.189,0.066,45.98,-68.85,0
1114813.0,-0.271,-0.106,0.02,-21.32,85.71,0
1114818.0,0.201,0.332,0.176,51.19,-48.83,0
1114823.0,-0.364,-0.137,0.083,-20.16,77.22,0
1114828.0,0.213,0.071,0.008,18.48,-87.77,0
1114833.0,-0.347,-0.197,0.011,-29.55,88.24,0
1114838.0,0.163,0.167,0.303,25.91,-28.27,0
1114843.0,-0.29,-0.163,0.073,-28.67,75.87,0
1114848.0,0.139,0.136,-0.075,40.69,-118.53,0
1114853.0,-0.254,-0.273,-0.028,-46.97,96.21,0
1114858.0,0.182,0.181,0.296,27.59,-31.61,0
1114863.0,-0.263,-0.194,0.049,-35.98,79.46,0
1114868.0,0.34,0.268,-0.111,36.79,-108.14,0
1114873.0,-0.294,-0.262,-0.02,-41.54,93.97,0
1114878.0,0.405,0.124,0.315,13.59,-52.12,0
1114883.0,-0.335,-0.245,-0.145,-33.83,113.38,0
1114888.0,0.45,0.287,0.023,32.47,-87.12,0
1114893.0,-0.215,-0.25,0.147,-43.72,55.67,0
1114898.0,0.431,0.15,0.312,15.77,-54.06,0
1114903.0,-0.218,-0.422,0.037,-62.36,80.35,0
1114908.0,0.39,0.373,0.166,41.32,-66.92,0
1114913.0,-0.261,-0.214,0.102,-37.34,68.71,0
1114918.0,0.306,0.143,0.092,24.09,-73.27,0
1114923.0,-0.354,-0.302,-0.21,-36.28,120.6,0
1114928.0,0.378,0.327,0.013,40.86,-88.02,0
1114933.0,-0.395,-0.168,0.071,-22.73,79.87,0
1114938.0,0.426,0.124,0.159,15.24,-69.52,0
1114943.0,-0.311,-0.47,-0.152,-53.6,116.05,0
1114948.0,0.433,0.368,0.181,38.1,-67.37,0
1114953.0,-0.335,-0.324,0.042,-43.79,82.89,0
1114958.0,0.376,0.263,0.152,32.95,-67.99,0
1114963.0,-0.34,-0.436,-0.006,-52.07,91.02,0
1114968.0,0.555,0.366,0.166,32.24,-73.33,0
1114973.0,-0.268,-0.257,0.047,-43.33,80.14,0
1114978.0,0.488,0.371,0.291,33.1,-59.23,0
1114983.0,-0.297,-0.58,0.035,-62.73,83.35,0
1114988.0,0.596,0.442,0.169,35.53,-74.2,0
1114993.0,-0.338,-0.487,-0.054,-54.91,99.08,0
1114998.0,0.433,0.459,0.147,45.09,-71.24,0
1115003.0,-0.306,-0.57,0.075,-61.04,76.19,0
1115008.0,0.529,0.502,0.332,38.81,-57.93,0
1115013.0,-0.347,-0.417,0.044,-50.01,82.74,0
1115018.0,0.412,0.428,0.207,42.88,-63.31,0
1115023.0,-0.311,-0.585,-0.066,-61.45,101.96,0
1115028.0,0.409,0.383,0.087,42.42,-77.96,0
1115033.0,-0.29,-0.362,-0.02,-51.27,94.03,0
1115038.0,0.354,0.435,0.138,48.86,-68.78,0
1115043.0,-0.33,-0.47,-0.198,-50.67,120.88,0
1115048.0,0.615,0.351,0.154,28.98,-75.92,0
1115053.0,-0.311,-0.403,0.03,-52.18,84.52,0
1115058.0,0.438,0.426,0.262,39.82,-59.11,0
1115063.0,-0.35,-0.451,0.015,-52.17,87.46,0
1115068.0,0.443,0.428,0.245,40.21,-61.02,0
1115073.0,-0.393,-0.465,-0.061,-49.49,98.85,0
1115078.0,0.369,0.514,0.116,53.07,-72.53,0
1115083.0,-0.321,-0.578,-0.085,-60.11,104.85,0
1115088.0,0.508,0.526,0.281,42.2,-61.01,0
1115093.0,-0.333,-0.546,-0.073,-58.05,102.39,0
1115098.0,0.453,0.445,0.049,44.34,-83.82,0
1115103.0,-0.304,-0.503,-0.186,-54.71,121.4,0
1115108.0,0.453,0.433,0.217,40.78,-64.42,0
1115113.0,-0.378,-0.357,0.018,-43.33,87.29,0
1115118.0,0.424,0.418,0.217,41.32,-62.93,0
1115123.0,-0.424,-0.532,-0.011,-51.45,91.47,0
1115128.0,0.405,0.514,0.209,48.46,-62.64,0
1115133.0,-0.345,-0.443,0.02,-52.09,86.64,0
1115138.0,0.393,0.375,0.264,38.41,-56.04,0
1115143.0,-0.306,-0.606,-0.09,-62.22,106.34,0
1115148.0,0.453,0.459,0.008,45.41,-88.95,0
1115153.0,-0.261,-0.386,-0.145,-52.29,119.05,0
1115158.0,0.441,0.445,0.248,41.35,-60.65,0
1115163.0,-0.39,-0.585,-0.061,-55.96,98.9,0
1115168.0,0.469,0.452,0.109,43.17,-76.94,0
1115173.0,-0.302,-0.369,-0.018,-50.7,93.42,0
1115178.0,0.421,0.392,0.305,37.0,-54.09,0
1115183.0,-0.39,-0.58,0.023,-56.02,86.68,0
1115188.0,0.464,0.387,0.159,38.27,-71.09,0
1115193.0,-0.347,-0.331,-0.169,-40.61,115.94,0
1115198.0,0.385,0.538,0.126,53.01,-71.95,0
1115203.0,-0.441,-0.594,-0.126,-52.37,105.93,0
1115208.0,0.491,0.428,0.152,39.8,-72.8,0
1115213.0,-0.354,-0.458,-0.248,-46.64,124.97,0
1115218.0,0.407,0.406,0.154,43.04,-69.23,0
1115223.0,-0.431,-0.511,-0.143,-48.36,108.3,0
1115228.0,0.371,0.315,0.13,38.73,-70.64,0
1115233.0,-0.395,-0.393,-0.128,-43.43,107.98,0
1115238.0,0.333,0.493,0.159,53.17,-64.44,0
1115243.0,-0.431,-0.515,-0.114,-49.14,104.79,0
1115248.0,0.505,0.342,0.171,32.65,-71.29,0
1115253.0,-0.275,-0.412,-0.121,-53.9,113.72,0
1115258.0,0.378,0.383,0.178,42.45,-64.77,0
1115263.0,-0.395,-0.436,-0.09,-47.12,102.82,0
1115268.0,0.469,0.418,0.207,39.21,-66.19,0
1115273.0,-0.359,-0.499,-0.121,-52.76,108.62,0
1115278.0,0.342,0.519,0.2,52.63,-59.73,0
1115283.0,-0.441,-0.563,-0.123,-50.91,105.65,0
1115288.0,0.445,0.397,0.262,37.53,-59.52,0
1115293.0,-0.366,-0.372,0.006,-45.41,89.08,0
1115298.0,0.376,0.459,0.104,49.65,-74.52,0
1115303.0,-0.297,-0.53,-0.166,-57.28,119.28,0
1115308.0,0.438,0.402,0.197,39.89,-65.74,0
1115313.0,-0.261,-0.432,-0.035,-58.61,97.59,0
1115318.0,0.397,0.462,0.219,45.48,-61.15,0
1115323.0,-0.33,-0.501,-0.099,-55.44,106.75,0
1115328.0,0.443,0.347,0.162,36.32,-69.96,0
1115333.0,-0.249,0.351,0.044,54.26,79.93,0
1115338.0,0.29,0.363,0.221,44.9,-52.61,0
1115343.0,-0.39,-0.312,-0.071,-38.17,100.27,0
1115348.0,0.318,0.244,0.118,35.65,-69.6,0
1115353.0,-0.347,-0.35,-0.155,-42.66,113.99,0
1115358.0,0.309,0.371,0.118,48.24,-69.02,0
1115363.0,-0.357,-0.336,-0.231,-38.3,122.94,0
1115368.0,0.314,0.258,0.018,39.4,-86.74,0
1115373.0,-0.069,0.136,0.049,57.98,54.79,0
1115378.0,0.323,0.363,0.063,47.81,-78.91,0
1115383.0,-0.397,-0.321,0.011,-38.95,88.46,0
1115388.0,0.283,0.337,-0.04,49.75,-97.98,0
1115393.0,-0.321,-0.408,0.03,-51.67,84.68,0
1115398.0,0.223,0.366,0.104,56.1,-64.95,0
1115403.0,-0.407,-0.4,0.059,-44.24,81.81,0
1115408.0,0.333,0.332,-0.006,44.95,-91.04,0
1115413.0,-0.067,0.196,0.056,65.92,50.03,0
1115418.0,0.333,0.327,-0.013,44.51,-92.28,0
1115423.0,-0.28,-0.269,-0.099,-42.11,109.54,0
1115428.0,0.335,-0.013,0.03,-2.13,-84.91,0
1115433.0,-0.206,0.081,0.102,19.39,63.72,0
1115438.0,0.218,-0.218,0.02,-44.95,-84.68,0
1115443.0,-0.438,0.011,-0.109,1.45,103.97,0
1115448.0,0.168,0.023,0.068,7.36,-67.87,0
1115453.0,-0.244,0.126,0.078,26.24,72.34,0
1115458.0,0.199,-0.211,0.027,-46.48,-82.13,0
1115463.0,-0.326,0.105,0.056,17.6,80.21,0
1115468.0,0.297,-0.051,0.042,-9.62,-81.98,0
1115473.0,-0.139,0.035,-0.073,12.7,117.76,0
1115478.0,0.385,-0.178,0.035,-24.67,-84.87,0
1115483.0,-0.177,-0.044,0.083,-12.59,65.03,0
1115488.0,0.359,0.031,0.116,4.63,-72.09,0
1115493.0,-0.223,0.002,0.092,0.44,67.53,0
1115498.0,0.213,-0.01,0.197,-2.0,-47.18,0
1115503.0,-0.273,-0.053,-0.013,-11.02,92.78,0
1115508.0,0.318,0.11,0.166,16.96,-62.42,0
1115513.0,-0.189,-0.039,0.195,-8.14,44.12,0
1115518.0,0.39,0.102,0.221,12.86,-60.43,0
1115523.0,-0.132,-0.082,-0.02,-31.59,98.82,0
1115528.0,0.431,0.05,-0.035,6.56,-94.62,0
1115533.0,-0.136,-0.125,-0.004,-42.49,91.54,0
1115538.0,0.388,0.078,0.142,10.75,-69.84,0
1115543.0,-0.278,-0.142,0.083,-26.08,73.45,0
1115548.0,0.251,0.191,0.051,36.66,-78.45,0
1115553.0,-0.371,-0.159,0.102,-22.4,74.68,0
1115558.0,0.378,0.114,0.317,13.04,-50.02,0
1115563.0,-0.271,-0.18,0.006,-33.65,88.75,0
1115568.0,0.388,0.119,-0.03,17.03,-94.42,0
1115573.0,-0.249,-0.216,-0.037,-40.63,98.49,0
1115578.0,0.388,0.088,0.126,12.18,-72.05,0
1115583.0,-0.177,-0.173,-0.02,-44.12,96.58,0
1115588.0,0.441,0.306,0.157,33.19,-70.41,0
1115593.0,-0.359,-0.353,-0.09,-43.6,104.05,0
1115598.0,0.304,0.213,0.09,33.84,-73.56,0
1115603.0,-0.29,-0.314,0.116,-45.19,68.17,0
1115608.0,0.371,0.351,0.209,39.51,-60.56,0
1115613.0,-0.321,-0.233,-0.023,-35.9,94.07,0
1115618.0,0.436,0.131,0.047,16.66,-83.89,0
1115623.0,-0.215,-0.319,-0.116,-52.49,118.34,0
1115628.0,0.407,0.174,0.087,22.71,-77.89,0
1115633.0,-0.271,-0.183,0.023,-33.91,85.21,0
1115638.0,0.347,0.272,0.118,36.6,-71.16,0
1115643.0,-0.409,-0.391,-0.02,-43.63,92.86,0
1115648.0,0.366,0.311,0.176,37.4,-64.35,0
1115653.0,-0.409,-0.331,-0.04,-38.82,95.52,0
1115658.0,0.402,0.342,0.097,39.56,-76.46,0
1115663.0,-0.256,-0.463,-0.008,-61.01,91.89,0
1115668.0,0.522,0.344,0.221,31.26,-67.02,0
1115673.0,-0.211,-0.432,0.056,-63.19,75.07,0
1115678.0,0.5,0.366,0.202,34.13,-67.99,0
1115683.0,-0.235,-0.489,-0.004,-64.36,90.9,0
1115688.0,0.496,0.454,0.3,38.1,-58.78,0
1115693.0,-0.366,-0.376,0.042,-45.6,83.49,0
1115698.0,0.464,0.332,0.157,34.13,-71.35,0
1115703.0,-0.335,-0.463,-0.04,-53.89,96.74,0
1115708.0,0.445,0.411,0.174,40.71,-68.71,0
1115713.0,-0.244,-0.333,0.001,-53.77,89.74,0
1115718.0,0.419,0.256,0.169,29.51,-68.07,0
1115723.0,-0.345,-0.441,-0.054,-51.65,98.89,0
1115728.0,0.515,0.442,0.236,38.0,-65.39,0
1115733.0,-0.373,-0.388,0.037,-45.98,84.34,0
1115738.0,0.419,0.375,0.166,39.78,-68.35,0
1115743.0,-0.335,-0.568,-0.083,-58.71,103.86,0
1115748.0,0.469,0.423,0.214,39.37,-65.47,0
1115753.0,-0.316,-0.441,-0.056,-53.95,100.11,0
1115758.0,0.426,0.45,0.018,46.5,-87.6,0
1115763.0,-0.412,-0.539,-0.176,-50.29,113.15,0
1115768.0,0.527,0.5,0.181,41.91,-71.07,0
1115773.0,-0.393,-0.412,-0.095,-45.59,103.55,0
1115778.0,0.424,0.43,0.162,43.5,-69.13,0
1115783.0,-0.34,-0.609,-0.064,-60.39,100.58,0
1115788.0,0.479,0.469,0.293,39.85,-58.52,0
1115793.0,-0.383,-0.429,0.056,-47.94,81.66,0
1115798.0,0.321,0.466,0.071,54.84,-77.6,0
1115803.0,-0.412,-0.508,-0.123,-49.77,106.68,0
1115808.0,0.512,0.471,0.322,37.9,-57.86,0
1115813.0,-0.345,-0.566,-0.013,-58.62,92.2,0
1115818.0,0.426,0.531,-0.008,51.24,-91.14,0
1115823.0,-0.297,-0.609,-0.138,-61.73,114.89,0
1115828.0,0.575,0.442,0.343,33.46,-59.13,0
1115833.0,-0.34,-0.341,0.08,-44.27,76.74,0
1115838.0,0.39,0.349,0.092,41.04,-76.72,0
1115843.0,-0.371,-0.508,-0.073,-53.34,101.14,0
1115848.0,0.431,0.418,0.238,40.36,-61.08,0
1115853.0,-0.409,-0.4,-0.066,-44.0,99.15,0
1115858.0,0.421,0.426,0.104,44.44,-76.13,0
1115863.0,-0.347,-0.518,-0.097,-55.15,105.62,0
1115868.0,0.46,0.428,0.118,42.04,-75.55,0
1115873.0,-0.29,-0.446,-0.095,-55.65,108.09,0
1115878.0,0.421,0.43,0.169,43.48,-68.18,0
1115883.0,-0.371,-0.499,-0.104,-52.29,105.69,0
1115888.0,0.462,0.459,0.142,43.52,-72.88,0
1115893.0,-0.412,-0.479,0.051,-49.12,82.89,0
1115898.0,0.342,0.497,0.181,52.11,-62.18,0
1115903.0,-0.455,-0.508,-0.111,-47.33,103.76,0
1115908.0,0.453,0.445,0.154,42.93,-71.17,0
1115913.0,-0.419,-0.472,-0.255,-43.91,121.33,0
1115918.0,0.359,0.457,0.118,50.38,-71.75,0
1115923.0,-0.424,-0.549,-0.166,-50.32,111.45,0
1115928.0,0.486,0.493,0.193,43.3,-68.38,0
1115933.0,-0.412,-0.506,-0.028,-50.78,93.84,0
1115938.0,0.345,0.464,0.152,50.92,-66.21,0
1115943.0,-0.429,-0.527,-0.114,-49.94,104.87,0
1115948.0,0.412,0.375,0.221,38.76,-61.74,0
1115953.0,-0.352,-0.415,-0.066,-49.2,100.61,0
1115958.0,0.263,0.445,0.011,59.35,-87.67,0
1115963.0,-0.421,-0.436,-0.26,-41.39,121.66,0
1115968.0,0.373,0.375,0.087,44.38,-76.84,0
1115973.0,-0.405,0.299,0.157,34.54,68.82,0
1115978.0,0.326,0.361,0.049,47.63,-81.44,0
1115983.0,-0.45,-0.417,0.073,-42.45,80.79,0
1115988.0,0.378,0.344,-0.001,42.3,-90.19,0
1115993.0,-0.364,-0.297,0.001,-39.26,89.82,0
1115998.0,0.376,0.347,-0.145,40.71,-111.08,0
1116003.0,-0.371,-0.453,-0.028,-50.6,94.26,0
1116008.0,0.448,0.354,0.027,38.26,-86.49,0
1116013.0,-0.122,0.217,0.042,59.29,71.09,0
1116018.0,0.299,0.495,-0.174,55.05,-120.13,0
1116023.0,-0.359,-0.501,0.066,-53.91,79.62,0
1116028.0,0.371,-0.319,-0.04,-40.52,-96.09,0
1116033.0,-0.431,0.325,0.111,36.14,75.53,0
1116038.0,0.304,-0.4,0.066,-52.15,-77.8,0
1116043.0,-0.378,0.392,0.037,45.89,84.41,0
1116048.0,0.321,-0.252,-0.121,-36.31,-110.66,0
1116053.0,-0.4,0.224,0.094,28.65,76.7,0
1116058.0,0.34,-0.194,0.197,-26.32,-59.85,0
1116063.0,-0.326,0.16,0.001,26.15,89.8,0
1116068.0,0.057,-0.187,-0.145,-50.23,-158.37,0
1116073.0,-0.146,0.174,0.03,49.45,78.45,0
1116078.0,0.098,-0.125,0.049,-48.74,-63.47,0
1116083.0,-0.163,0.174,-0.111,41.45,124.38,0
1116088.0,0.141,-0.108,0.001,-37.48,-89.55,0
1116093.0,-0.069,0.198,0.147,50.61,25.26,0
1116098.0,0.244,-0.206,0.121,-37.15,-63.68,0
1116103.0,-0.199,0.162,0.004,39.23,88.99,0
1116108.0,0.18,-0.123,0.006,-34.32,-88.12,0
1116113.0,-0.139,0.148,0.147,36.16,43.34,0
1116118.0,0.194,-0.178,-0.04,-41.92,-101.54,0
1116123.0,-0.141,0.074,-0.02,27.3,98.23,0
1116128.0,0.271,-0.065,0.044,-13.38,-80.72,0
1116133.0,-0.146,0.064,0.001,23.69,89.56,0
1116138.0,0.223,-0.053,-0.075,-12.76,-108.73,0
1116143.0,-0.153,0.066,0.035,22.94,77.26,0
1116148.0,0.196,-0.051,0.056,-13.98,-74.03,0
1116153.0,-0.232,0.045,-0.028,10.88,96.78,0
1116158.0,0.158,-0.125,0.073,-35.7,-65.22,0
1116163.0,-0.239,0.095,0.056,21.16,76.79,0
1116168.0,0.294,-0.056,0.027,-10.65,-84.67,0
1116173.0,-0.187,0.007,0.037,1.99,78.78,0
1116178.0,0.311,-0.142,0.202,-20.91,-56.99,0
1116183.0,-0.199,0.016,0.004,4.66,88.99,0
1116188.0,0.309,0.119,0.039,20.94,-82.73,0
1116193.0,-0.122,0.009,0.106,3.19,48.91,0
1116198.0,0.266,0.002,0.142,0.35,-61.82,0
1116203.0,-0.271,-0.075,0.006,-15.45,88.75,0
1116208.0,0.302,0.069,0.154,11.49,-62.9,0
1116213.0,-0.244,-0.032,0.133,-6.5,61.46,0
1116218.0,0.275,0.05,0.006,10.23,-88.77,0
1116223.0,-0.239,-0.046,-0.138,-9.46,119.91,0
1116228.0,0.421,-0.039,0.176,-4.87,-67.34,0
1116233.0,-0.302,-0.051,0.059,-9.39,79.01,0
1116238.0,0.259,0.014,-0.087,2.9,-108.69,0
1116243.0,-0.271,-0.135,-0.126,-24.29,114.93,0
1116248.0,0.35,0.117,0.188,16.39,-61.74,0
1116253.0,-0.278,-0.104,0.044,-20.21,80.95,0
1116258.0,0.251,0.098,-0.035,21.04,-97.88,0
1116263.0,-0.213,-0.187,-0.03,-41.04,98.02,0
1116268.0,0.362,0.143,0.14,20.26,-68.83,0
1116273.0,-0.323,-0.238,-0.004,-36.32,90.65,0
1116278.0,0.326,0.201,0.181,28.31,-60.97,0
1116283.0,-0.287,-0.106,0.104,-19.12,70.09,0
1116288.0,0.409,0.11,0.097,14.6,-76.69,0
1116293.0,-0.323,-0.194,-0.013,-31.02,92.35,0
1116298.0,0.316,0.148,0.248,20.22,-51.91,0
1116303.0,-0.187,-0.106,-0.047,-28.82,104.06,0
1116308.0,0.426,0.145,0.078,18.56,-79.66,0
1116313.0,-0.237,-0.226,0.025,-43.43,83.96,0
1116318.0,0.359,0.078,0.09,11.97,-75.98,0
1116323.0,-0.347,-0.202,-0.052,-29.88,98.45,0
1116328.0,0.472,0.323,0.212,31.97,-65.82,0
1116333.0,-0.28,-0.297,0.123,-44.18,66.26,0
1116338.0,0.33,0.224,0.104,32.95,-72.52,0
1116343.0,-0.249,-0.408,-0.095,-56.83,110.81,0
1116348.0,0.347,0.462,0.171,50.02,-63.76,0
1116353.0,-0.345,-0.266,0.059,-37.29,80.36,0
1116358.0,0.393,0.189,0.059,25.41,-81.51,0
1116363.0,-0.297,-0.379,-0.03,-51.77,95.77,0
1116368.0,0.457,0.284,0.296,27.57,-57.12,0
1116373.0,-0.254,-0.266,0.011,-46.35,87.59,0
1116378.0,0.441,0.28,0.094,31.82,-77.89,0
1116383.0,-0.249,-0.501,0.001,-63.57,89.74,0
1116388.0,0.546,0.485,0.274,38.48,-63.34,0
1116393.0,-0.342,-0.35,0.054,-45.29,81.07,0
1116398.0,0.407,0.344,0.042,40.07,-84.13,0
1116403.0,-0.33,-0.467,-0.085,-53.87,104.44,0
1116408.0,0.359,0.366,0.169,42.67,-64.84,0
1116413.0,-0.335,-0.293,-0.075,-40.42,102.69,0
1116418.0,0.388,0.32,0.178,36.88,-65.31,0
1116423.0,-0.35,-0.542,-0.104,-56.04,106.6,0
1116428.0,0.527,0.366,0.09,34.39,-80.34,0
1116433.0,-0.39,-0.281,0.051,-35.49,82.5,0
1116438.0,0.448,0.366,0.224,36.16,-63.44,0
1116443.0,-0.206,-0.491,-0.001,-67.26,90.36,0
1116448.0,0.373,0.428,0.209,44.99,-60.72,0
1116453.0,-0.273,-0.36,0.162,-48.6,59.38,0
1116458.0,0.455,0.414,0.257,38.36,-60.51,0
1116463.0,-0.393,-0.647,-0.068,-58.37,99.87,0
1116468.0,0.508,0.469,0.176,41.11,-70.89,0
1116473.0,-0.35,-0.484,-0.025,-54.1,94.13,0
1116478.0,0.426,0.533,0.188,48.87,-66.21,0
1116483.0,-0.402,-0.479,-0.116,-48.87,106.11,0
1116488.0,0.457,0.366,0.042,38.54,-84.77,0
1116493.0,-0.421,-0.338,-0.166,-36.73,111.56,0
1116498.0,0.366,0.354,0.15,41.8,-67.79,0
1116503.0,-0.326,-0.491,-0.119,-54.81,110.01,0
1116508.0,0.397,0.335,-0.131,38.66,-108.19,0
1116513.0,-0.405,-0.436,-0.099,-46.32,103.81,0
1116518.0,0.448,0.43,0.147,42.4,-71.8,0
1116523.0,-0.481,-0.436,-0.119,-41.36,103.84,0
1116528.0,0.472,0.445,0.116,42.48,-76.18,0
1116533.0,-0.352,-0.455,-0.059,-51.92,99.47,0
1116538.0,0.378,0.361,0.181,40.73,-64.47,0
1116543.0,-0.321,-0.479,0.001,-56.21,89.8,0
1116548.0,0.414,0.519,-0.147,49.73,-109.58,0
1116553.0,-0.28,-0.515,0.027,-61.36,84.4,0
1116558.0,0.443,0.495,0.147,46.69,-71.62,0
1116563.0,-0.385,-0.57,-0.111,-54.87,106.12,0
1116568.0,0.484,0.44,0.197,40.11,-67.79,0
1116573.0,-0.378,-0.522,-0.023,-54.05,93.45,0
1116578.0,0.443,0.485,0.209,44.74,-64.7,0
1116583.0,-0.453,-0.527,0.049,-49.2,83.82,0
1116588.0,0.472,-0.465,-0.028,-44.55,-93.35,0
1116593.0,-0.35,-0.295,0.087,-39.31,75.98,0
1116598.0,0.376,0.335,-0.238,36.94,-122.37,0
1116603.0,-0.405,-0.532,0.008,-52.74,88.82,0
1116608.0,0.484,0.392,0.023,39.0,-87.32,0
1116613.0,-0.345,-0.465,0.13,-51.6,69.28,0
1116618.0,0.359,0.378,-0.114,45.08,-107.58,0
1116623.0,-0.405,-0.448,-0.047,-47.74,96.59,0
1116628.0,-0.007,-0.307,-0.138,-65.81,177.02,0
1116633.0,-0.316,0.244,0.071,36.96,77.42,0
1116638.0,0.39,-0.247,-0.155,-30.49,-111.6,0
1116643.0,-0.438,0.414,0.042,43.22,84.55,0
1116648.0,0.46,-0.285,-0.066,-31.58,-98.16,0
1116653.0,-0.369,0.234,0.03,32.32,85.37,0
1116658.0,0.373,-0.453,-0.104,-49.44,-105.59,0
1116663.0,-0.35,0.466,-0.023,53.09,93.74,0
1116668.0,-0.022,-0.324,-0.181,-60.64,173.21,0
1116673.0,-0.096,0.268,0.049,68.1,62.9,0
1116678.0,-0.01,-0.35,-0.09,-75.53,173.92,0
1116683.0,-0.089,0.368,-0.085,71.55,133.84,0
1116688.0,0.065,-0.142,-0.047,-60.64,-125.88,0
1116693.0,-0.103,0.222,0.126,53.82,39.34,0
1116698.0,0.103,-0.458,-0.018,-77.14,-99.94,0
1116703.0,0.0,0.335,0.087,75.38,0.0,0
1116708.0,0.103,-0.288,-0.085,-65.11,-129.57,0
1116713.0,-0.024,0.438,0.075,79.76,17.63,0
1116718.0,0.022,-0.369,-0.107,-73.59,-168.57,0
1116723.0,-0.151,0.385,-0.03,68.22,101.25,0
1116728.0,0.053,-0.281,-0.042,-76.51,-128.55,0
1116733.0,-0.17,0.299,0.047,59.46,74.67,0
1116738.0,0.031,-0.398,-0.155,-68.4,-168.61,0
1116743.0,-0.055,0.308,0.025,78.9,65.53,0
1116748.0,0.036,-0.288,-0.004,-82.85,-95.84,0
1116753.0,-0.06,0.323,-0.042,77.23,125.04,0
1116758.0,0.148,-0.273,-0.147,-52.6,-134.78,0
1116763.0,-0.141,0.277,-0.001,62.99,90.52,0
1116768.0,0.196,-0.123,0.018,-31.89,-84.8,0
1116773.0,-0.158,0.117,0.02,36.24,82.69,0
1116778.0,0.175,-0.204,0.061,-47.79,-70.77,0
1116783.0,-0.141,0.205,0.169,43.02,39.94,0
1116788.0,0.038,-0.192,0.039,-74.03,-44.18,0
1116793.0,-0.105,0.256,0.037,66.4,70.63,0
1116798.0,0.074,-0.171,-0.047,-62.78,-122.22,0
1116803.0,-0.048,0.213,0.066,69.05,36.06,0
1116808.0,0.268,-0.281,-0.059,-45.64,-102.36,0
1116813.0,-0.096,0.167,0.023,59.49,76.69,0
1116818.0,0.215,-0.072,0.032,-18.38,-81.49,0
1116823.0,-0.177,0.172,0.056,42.75,72.41,0
1116828.0,0.146,-0.075,-0.004,-27.11,-91.44,0
1116833.0,-0.249,0.052,0.085,11.2,71.17,0
1116838.0,0.213,-0.108,0.106,-24.45,-63.45,0
1116843.0,-0.189,0.124,0.078,31.22,67.66,0
1116848.0,0.213,-0.125,-0.056,-29.57,-104.81,0
1116853.0,-0.148,0.083,-0.04,28.45,104.93,0
1116858.0,0.261,-0.08,0.001,-16.96,-89.75,0
1116863.0,-0.16,0.122,-0.073,34.59,114.5,0
1116868.0,0.273,-0.151,0.09,-27.79,-71.81,0
1116873.0,-0.175,-0.001,0.068,-0.17,68.7,0
1116878.0,0.261,-0.034,0.068,-7.2,-75.36,0
1116883.0,-0.153,0.081,0.063,25.99,67.53,0
1116888.0,0.242,0.014,0.193,2.56,-51.46,0
1116893.0,-0.18,0.04,0.133,10.19,53.52,0
1116898.0,0.306,-0.003,0.142,-0.5,-65.08,0
1116903.0,-0.129,-0.068,-0.008,-27.55,93.74,0
1116908.0,0.316,0.011,0.004,2.07,-89.36,0
1116913.0,-0.223,0.047,0.011,11.99,87.25,0
1116918.0,0.417,-0.07,0.13,-9.11,-72.62,0
1116923.0,-0.218,-0.003,-0.013,-0.78,93.48,0
1116928.0,0.256,0.055,0.075,11.54,-73.61,0
1116933.0,-0.237,0.055,0.061,12.56,75.57,0
1116938.0,0.314,-0.144,0.142,-22.72,-65.58,0
1116943.0,-0.393,-0.053,-0.035,-7.69,95.06,0
1116948.0,0.314,0.126,0.138,20.25,-66.31,0
1116953.0,-0.259,-0.068,0.109,-13.55,67.17,0
1116958.0,0.412,0.04,0.073,5.48,-79.96,0
1116963.0,-0.215,-0.302,-0.176,-47.36,129.25,0
1116968.0,0.345,0.236,0.114,33.08,-71.76,0
1116973.0,-0.208,-0.13,0.068,-30.65,71.88,0
1116978.0,0.34,0.145,0.085,22.55,-75.98,0
1116983.0,-0.309,-0.307,-0.085,-43.78,105.4,0
1116988.0,0.409,0.174,0.152,21.75,-69.64,0
1116993.0,-0.362,-0.087,0.116,-12.87,72.2,0
1116998.0,0.275,0.124,0.135,22.0,-63.85,0
1117003.0,-0.299,-0.202,0.051,-33.59,80.26,0
1117008.0,0.412,0.167,0.236,19.39,-60.21,0
1117013.0,-0.275,-0.297,-0.011,-47.19,92.26,0
1117018.0,0.304,0.299,-0.049,44.12,-99.18,0
1117023.0,-0.266,-0.293,-0.028,-47.6,95.93,0
1117028.0,0.443,0.275,0.214,29.18,-64.19,0
1117033.0,-0.364,-0.226,-0.109,-30.71,106.68,0
1117038.0,0.314,0.167,0.03,27.93,-84.56,0
1117043.0,-0.237,-0.295,0.059,-50.39,76.12,0
1117048.0,0.369,0.177,0.224,22.27,-58.75,0
1117053.0,-0.316,-0.228,0.047,-35.52,81.61,0
1117058.0,0.28,0.27,0.123,41.42,-66.26,0
1117063.0,-0.227,-0.187,-0.02,-39.36,95.13,0
1117068.0,0.479,0.143,0.133,16.06,-74.5,0
1117073.0,-0.34,-0.285,0.044,-39.78,82.59,0
1117078.0,0.39,0.224,0.193,27.29,-63.73,0
1117083.0,-0.254,-0.228,-0.023,-41.82,95.14,0
1117088.0,0.393,0.26,0.121,32.37,-72.9,0
1117093.0,-0.347,-0.312,0.054,-41.59,81.19,0
1117098.0,0.419,0.292,0.231,31.36,-61.13,0
1117103.0,-0.287,-0.515,-0.059,-60.36,101.55,0
1117108.0,0.395,0.473,-0.248,45.43,-122.11,0
1117113.0,-0.314,-0.379,0.013,-50.35,87.61,0
1117118.0,0.512,0.311,0.241,28.76,-64.85,0
1117123.0,-0.443,-0.491,-0.016,-47.95,92.02,0
1117128.0,0.462,0.478,0.197,43.59,-66.86,0
1117133.0,-0.292,-0.3,0.02,-45.68,86.03,0
1117138.0,0.371,0.236,0.054,32.24,-81.75,0
1117143.0,-0.359,-0.597,-0.147,-56.96,112.3,0
1117148.0,0.421,-0.218,-0.042,-27.29,-95.69,0
1117153.0,-0.256,-0.285,0.054,-47.48,78.14,0
1117158.0,0.467,0.284,0.157,30.0,-71.44,0
1117163.0,-0.407,-0.455,-0.14,-46.62,109.0,0
1117168.0,0.575,0.406,0.255,32.89,-66.08,0
1117173.0,-0.316,-0.302,0.094,-42.5,73.35,0
1117178.0,0.443,0.356,0.176,36.77,-68.34,0
1117183.0,-0.359,-0.676,-0.02,-61.97,93.26,0
1117188.0,-0.165,-0.338,-0.016,-63.86,95.41,0
1117193.0,-0.316,-0.192,0.14,-29.06,66.11,0
1117198.0,0.421,0.416,-0.317,38.26,-126.98,0
1117203.0,-0.388,-0.604,-0.135,-55.77,109.24,0
1117208.0,0.589,0.359,-0.044,31.26,-94.31,0
1117213.0,-0.306,-0.417,0.035,-53.52,83.55,0
1117218.0,0.433,0.509,-0.286,44.45,-123.44,0
1117223.0,-0.338,-0.649,0.001,-62.53,89.81,0
1117228.0,-0.148,-0.35,-0.121,-61.32,129.18,0
1117233.0,-0.354,0.375,0.032,46.53,84.8,0
1117238.0,0.385,-0.283,-0.32,-29.48,-129.67,0
1117243.0,-0.383,0.308,0.004,38.83,89.47,0
1117248.0,0.512,-0.386,-0.143,-35.97,-105.55,0
1117253.0,-0.29,0.383,-0.035,52.66,96.85,0
1117258.0,0.28,-0.259,-0.224,-35.85,-128.64,0
1117263.0,-0.261,0.332,0.039,51.54,81.41,0
1117268.0,0.002,-0.317,-0.111,-70.61,-178.77,0
1117273.0,-0.022,0.268,-0.042,80.0,152.83,0
1117278.0,-0.163,-0.3,-0.308,-40.74,152.12,0
1117283.0,0.093,0.426,0.08,73.88,-49.37,0
1117288.0,-0.146,-0.465,-0.006,-72.55,92.38,0
1117293.0,0.014,0.481,0.061,82.58,-13.26,0
1117298.0,-0.122,-0.367,-0.181,-59.26,145.97,0
1117303.0,0.0,0.44,0.111,75.81,0.0,0
1117308.0,-0.012,-0.321,-0.097,-73.08,172.97,0
1117313.0,-0.086,0.239,-0.133,56.44,147.05,0
1117318.0,-0.045,-0.329,-0.301,-47.23,171.39,0
1117323.0,-0.024,0.375,0.118,72.16,11.43,0
1117328.0,-0.139,-0.223,-0.119,-50.71,130.5,0
1117333.0,-0.029,0.335,-0.087,74.62,161.82,0
1117338.0,-0.057,-0.331,-0.207,-56.99,164.5,0
1117343.0,-0.127,0.327,-0.011,68.75,94.89,0
1117348.0,-0.091,-0.252,-0.097,-62.17,136.85,0
1117353.0,0.012,0.284,0.09,72.35,-7.6,0
1117358.0,-0.005,-0.376,-0.181,-64.33,178.48,0
1117363.0,-0.002,0.435,0.047,83.88,2.94,0
1117368.0,0.01,-0.35,-0.049,-81.86,-168.98,0
1117373.0,-0.048,0.392,0.138,69.62,19.19,0
1117378.0,0.146,-0.396,-0.018,-69.6,-97.04,0
1117383.0,-0.105,0.287,-0.052,67.75,116.08,0
1117388.0,0.017,-0.271,-0.178,-56.53,-174.63,0
1117393.0,0.036,0.275,0.13,63.79,-15.4,0
1117398.0,0.086,-0.266,0.123,-60.55,-34.97,0
1117403.0,-0.036,0.287,0.042,79.12,40.66,0
1117408.0,-0.043,-0.238,-0.188,-50.93,167.09,0
1117413.0,-0.067,0.349,0.092,71.92,36.05,0
1117418.0,0.06,-0.324,-0.016,-79.18,-104.65,0
1117423.0,-0.022,0.342,0.097,73.81,12.54,0
1117428.0,0.077,-0.422,-0.073,-75.91,-133.66,0
1117433.0,-0.038,0.339,0.068,77.03,29.34,0
1117438.0,0.158,-0.302,-0.066,-60.47,-112.64,0
1117443.0,-0.16,0.318,-0.02,63.04,97.26,0
1117448.0,0.089,-0.163,-0.016,-61.16,-100.01,0
1117453.0,-0.163,0.186,0.039,48.02,76.39,0
1117458.0,0.065,-0.348,-0.123,-68.17,-152.35,0
1117463.0,-0.089,0.265,-0.025,70.85,105.89,0
1117468.0,0.089,-0.051,0.001,-29.85,-89.28,0
1117473.0,-0.141,0.217,0.035,56.21,76.22,0
1117478.0,0.136,-0.324,-0.222,-51.21,-148.37,0
1117483.0,-0.141,0.272,-0.008,62.55,93.43,0
1117488.0,0.136,-0.125,0.106,-35.85,-52.04,0
1117493.0,-0.101,0.203,0.071,58.82,54.95,0
1117498.0,0.019,-0.333,-0.21,-57.74,-174.78,0
1117503.0,-0.223,0.222,-0.054,44.11,103.62,0
1117508.0,0.132,-0.175,0.14,-42.38,-43.25,0
1117513.0,-0.189,0.265,0.092,51.58,64.04,0
1117518.0,0.172,-0.211,-0.078,-48.16,-114.32,0
1117523.0,-0.148,0.105,-0.071,32.51,115.47,0
1117528.0,0.199,-0.166,-0.052,-38.92,-104.54,0
1117533.0,-0.208,0.213,0.015,45.5,85.75,0
1117538.0,0.139,-0.159,0.03,-48.15,-77.87,0
1117543.0,-0.163,0.174,0.023,46.67,82.07,0
1117548.0,0.204,-0.161,0.032,-38.0,-81.0,0
1117553.0,-0.208,0.129,0.047,31.09,77.39,0
1117558.0,0.244,-0.149,0.063,-30.56,-75.45,0
1117563.0,-0.089,0.153,0.051,56.15,59.88,0
1117568.0,0.244,-0.056,0.001,-12.83,-89.74,0
1117573.0,-0.184,-0.003,-0.068,-0.86,110.33,0
1117578.0,0.172,-0.183,-0.037,-45.98,-102.17,0
1117583.0,-0.16,0.076,0.054,24.21,71.46,0
1117588.0,0.187,0.045,0.066,12.79,-70.6,0
1117593.0,-0.239,-0.036,0.078,-8.24,72.01,0
1117598.0,0.251,-0.034,0.104,-7.14,-67.51,0
1117603.0,-0.256,0.028,-0.049,6.16,100.86,0
1117608.0,0.369,-0.001,0.135,-0.08,-69.86,0
1117613.0,-0.218,0.047,0.085,11.44,68.71,0
1117618.0,0.223,-0.118,0.094,-25.98,-67.0,0
1117623.0,-0.079,0.136,-0.016,59.35,101.2,0
1117628.0,0.227,-0.032,0.011,-7.92,-87.31,0
1117633.0,-0.158,-0.034,0.114,-9.93,54.28,0
1117638.0,0.235,-0.115,0.123,-23.54,-62.29,0
1117643.0,-0.242,-0.032,-0.107,-6.84,113.79,0
1117648.0,0.326,0.045,0.001,7.86,-89.8,0
1117653.0,-0.285,-0.06,0.099,-11.32,70.79,0
1117658.0,0.342,0.009,0.13,1.41,-69.15,0
1117663.0,-0.211,-0.051,0.013,-13.54,86.45,0
1117668.0,0.419,0.088,0.147,11.21,-70.65,0
1117673.0,-0.22,-0.156,-0.032,-35.05,98.37,0
1117678.0,0.323,0.019,0.059,3.24,-79.73,0
1117683.0,-0.153,-0.209,0.056,-51.99,69.86,0
1117688.0,0.306,0.268,0.14,38.46,-65.45,0
1117693.0,-0.242,-0.183,-0.008,-37.03,92.0,0
1117698.0,0.316,0.122,0.094,20.23,-73.35,0
1117703.0,-0.292,-0.163,0.056,-28.78,79.11,0
1117708.0,0.426,0.16,-0.253,17.88,-120.66,0
1117713.0,-0.393,-0.173,-0.214,-21.14,118.63,0
1117718.0,0.335,0.105,0.061,17.1,-79.69,0
1117723.0,-0.278,-0.211,0.241,-29.9,49.1,0
1117728.0,0.268,0.196,0.174,31.51,-57.1,0
1117733.0,-0.326,-0.149,-0.171,-22.05,117.74,0
1117738.0,0.304,0.258,0.068,39.63,-77.37,0
1117743.0,-0.285,-0.319,0.075,-47.27,75.19,0
1117748.0,0.476,-0.355,-0.214,-34.19,-114.22,0
1117753.0,-0.263,-0.314,-0.083,-48.7,107.43,0
1117758.0,0.397,0.253,0.004,32.5,-89.49,0
1117763.0,-0.268,-0.309,-0.059,-48.42,102.36,0
1117768.0,0.318,0.222,0.102,33.6,-72.29,0
1117773.0,-0.39,-0.242,0.001,-31.84,89.84,0
1117778.0,0.381,0.193,0.231,23.47,-58.75,0
1117783.0,-0.381,-0.271,0.018,-35.43,87.31,0
1117788.0,-0.321,-0.317,-0.257,-37.58,128.75,0
1117793.0,-0.321,-0.415,0.164,-49.02,62.94,0
1117798.0,0.4,0.342,-0.212,37.06,-117.93,0
1117803.0,-0.194,-0.4,-0.083,-62.23,113.09,0
1117808.0,0.45,0.294,-0.296,28.62,-123.31,0
1117813.0,-0.326,-0.384,0.092,-48.59,74.21,0
1117818.0,0.486,0.234,-0.095,25.3,-101.02,0
1117823.0,-0.321,-0.333,0.027,-45.99,85.11,0
1117828.0,-0.304,-0.288,-0.317,-33.23,136.22,0
1117833.0,-0.397,0.232,0.03,30.17,85.71,0
1117838.0,0.354,-0.242,-0.023,-34.32,-93.69,0
1117843.0,-0.359,0.342,0.044,43.37,82.98,0
1117848.0,0.441,-0.235,-0.238,-25.15,-118.41,0
1117853.0,-0.318,0.301,-0.037,43.21,96.66,0
1117858.0,0.536,-0.23,-0.241,-21.4,-114.17,0
1117863.0,-0.251,0.284,-0.004,48.52,90.84,0
1117868.0,-0.156,-0.324,-0.31,-43.02,153.35,0
1117873.0,0.081,0.277,-0.123,61.93,-146.58,0
1117878.0,-0.239,-0.338,-0.147,-50.26,121.61,0
1117883.0,-0.036,0.402,0.243,58.56,8.41,0
1117888.0,-0.314,-0.211,-0.138,-31.66,113.71,0
1117893.0,0.086,0.26,-0.075,66.25,-131.22,0
1117898.0,-0.141,-0.321,-0.162,-56.25,138.86,0
1117903.0,0.024,0.327,0.135,67.25,-10.04,0
1117908.0,-0.031,-0.353,-0.19,-61.31,170.72,0
1117913.0,0.189,0.284,-0.052,55.42,-105.25,0
1117918.0,-0.148,-0.319,-0.25,-47.63,149.33,0
1117923.0,0.132,0.366,0.197,57.02,-33.7,0
1117928.0,-0.206,-0.372,-0.042,-60.52,101.52,0
1117933.0,0.127,0.541,0.075,74.73,-59.3,0
1117938.0,-0.227,-0.477,-0.224,-56.21,134.55,0
1117943.0,0.01,0.359,0.051,81.7,-10.56,0
1117948.0,-0.127,-0.427,-0.272,-54.89,154.98,0
1117953.0,0.034,0.292,0.025,81.83,-53.22,0
1117958.0,-0.014,-0.163,-0.135,-50.2,173.94,0
1117963.0,-0.002,0.248,-0.102,67.71,178.65,0
1117968.0,-0.089,-0.376,-0.245,-55.27,160.16,0
1117973.0,0.045,0.313,0.181,59.24,-14.13,0
1117978.0,-0.184,-0.23,-0.099,-47.73,118.34,0
1117983.0,-0.12,0.414,-0.131,66.82,137.48,0
1117988.0,-0.168,-0.333,-0.075,-61.13,114.25,0
1117993.0,0.029,0.258,0.262,44.38,-6.26,0
1117998.0,-0.089,-0.302,-0.231,-50.68,159.03,0
1118003.0,-0.069,0.354,-0.14,66.15,153.64,0
1118008.0,-0.01,-0.326,-0.178,-61.28,176.93,0
1118013.0,0.017,0.294,-0.008,86.35,-116.78,0
1118018.0,-0.117,-0.393,-0.2,-59.47,149.6,0
1118023.0,0.055,0.473,0.085,77.93,-32.96,0
1118028.0,-0.074,-0.372,-0.128,-68.27,149.93,0
1118033.0,-0.134,0.347,-0.104,63.9,127.86,0
1118038.0,-0.086,-0.369,-0.111,-69.12,142.27,0
1118043.0,-0.101,0.471,0.097,73.49,46.07,0
1118048.0,-0.096,-0.247,-0.265,-41.29,160.11,0
1118053.0,-0.031,0.253,-0.035,79.55,138.19,0
1118058.0,-0.005,-0.448,0.032,-85.84,8.45,0
1118063.0,-0.029,0.447,0.068,80.61,22.86,0
1118068.0,-0.036,-0.257,-0.38,-33.96,174.59,0
1118073.0,-0.067,0.301,-0.133,63.69,153.24,0
1118078.0,-0.048,-0.422,-0.013,-83.28,105.46,0
1118083.0,-0.024,0.435,0.238,61.19,5.74,0
1118088.0,-0.12,-0.216,-0.198,-43.08,148.79,0
1118093.0,-0.069,0.282,-0.145,60.32,154.4,0
1118098.0,0.074,-0.417,-0.006,-79.88,-94.67,0
1118103.0,-0.101,0.368,0.19,59.69,27.86,0
1118108.0,0.048,-0.202,-0.138,-54.13,-160.83,0
1118113.0,-0.041,0.287,-0.133,64.13,162.98,0
1118118.0,0.089,-0.324,-0.087,-68.97,-134.64,0
1118123.0,-0.067,0.239,0.039,71.97,59.54,0
1118128.0,-0.002,-0.206,-0.155,-53.19,179.11,0
1118133.0,-0.206,0.361,-0.092,57.99,114.14,0
1118138.0,0.057,-0.374,-0.085,-74.65,-145.96,0
1118143.0,-0.196,0.32,0.099,55.51,63.17,0
1118148.0,0.127,-0.321,-0.008,-68.41,-93.81,0
1118153.0,-0.029,0.323,0.059,78.57,26.13,0
1118158.0,0.12,-0.288,-0.004,-67.41,-91.76,0
1118163.0,-0.06,0.224,0.015,74.6,75.5,0
1118168.0,0.146,-0.211,-0.075,-52.11,-117.34,0
1118173.0,-0.146,0.256,0.066,57.93,65.76,0
1118178.0,0.165,-0.319,0.068,-60.74,-67.58,0
1118183.0,-0.129,0.215,0.018,58.73,82.13,0
1118188.0,0.093,-0.216,-0.006,-66.58,-93.72,0
1118193.0,-0.086,0.198,0.15,48.94,29.96,0
1118198.0,0.124,-0.135,0.006,-47.21,-87.28,0
1118203.0,-0.022,0.145,0.02,78.51,46.75,0
1118208.0,0.208,-0.238,0.018,-48.65,-85.09,0
1118213.0,-0.249,0.236,-0.042,43.12,99.57,0
1118218.0,0.16,-0.166,-0.054,-44.4,-108.59,0
1118223.0,-0.132,0.239,0.193,45.67,34.35,0
1118228.0,0.158,-0.379,0.097,-63.93,-58.49,0
1118233.0,-0.16,0.145,-0.032,41.64,101.42,0
1118238.0,0.139,-0.163,-0.013,-49.51,-95.45,0
1118243.0,-0.115,0.193,0.08,54.08,55.11,0
1118248.0,0.271,-0.104,0.116,-19.37,-66.79,0
1118253.0,-0.158,0.023,0.03,8.27,79.3,0
1118258.0,0.242,-0.12,-0.109,-24.39,-114.27,0
1118263.0,-0.108,0.213,0.056,60.24,62.46,0
1118268.0,0.158,-0.12,0.042,-36.34,-75.18,0
1118273.0,-0.165,0.11,0.059,32.01,70.48,0
1118278.0,0.144,-0.412,-0.03,-70.41,-101.8,0
1118283.0,-0.225,0.306,0.008,53.64,87.89,0
1118288.0,0.232,-0.053,0.03,-12.81,-82.68,0
1118293.0,-0.208,0.069,0.109,16.33,62.41,0
1118298.0,0.287,-0.163,0.114,-27.87,-68.42,0
1118303.0,-0.129,0.016,0.118,5.28,47.51,0
1118308.0,0.297,-0.025,0.094,-4.5,-72.34,0
1118313.0,-0.148,0.102,-0.08,31.25,118.41,0
1118318.0,0.235,-0.139,0.061,-29.9,-75.43,0
1118323.0,-0.165,0.102,0.128,26.1,52.23,0
1118328.0,0.201,0.117,0.004,30.13,-89.0,0
1118333.0,-0.213,0.055,-0.011,14.33,92.92,0
1118338.0,0.285,-0.187,0.102,-31.76,-70.36,0
1118343.0,-0.294,-0.142,0.037,-25.54,82.83,0
1118348.0,0.283,0.143,-0.145,24.26,-117.16,0
1118353.0,-0.211,-0.058,0.02,-15.33,84.5,0
1118358.0,0.373,-0.02,0.054,-2.99,-81.8,0
1118363.0,-0.283,-0.197,-0.04,-34.61,97.98,0
1118368.0,0.335,0.224,0.111,32.44,-71.64,0
1118373.0,-0.206,-0.02,0.13,-4.62,57.65,0
1118378.0,0.292,0.023,0.123,4.22,-67.13,0
1118383.0,-0.263,-0.159,-0.09,-29.68,108.84,0
1118388.0,0.285,-0.048,-0.001,-9.65,-90.26,0
1118393.0,-0.215,-0.068,0.08,-16.39,69.6,0
1118398.0,0.292,0.162,-0.365,19.13,-141.35,0
1118403.0,0.199,0.174,0.015,41.16,-85.54,0
1118408.0,0.424,0.124,-0.169,15.2,-111.73,0
1118413.0,-0.196,-0.214,-0.047,-46.63,103.4,0
1118418.0,0.292,0.186,-0.222,26.92,-127.18,0
1118423.0,-0.275,-0.154,0.178,-25.12,57.08,0
1118428.0,0.4,0.098,-0.159,12.78,-111.72,0
1118433.0,-0.395,0.256,-0.001,32.91,90.19,0
1118438.0,0.316,-0.159,-0.174,-23.74,-118.79,0
1118443.0,0.227,0.244,0.171,40.57,-53.05,0
1118448.0,0.46,-0.309,-0.329,-28.69,-125.61,0
1118453.0,-0.239,0.208,-0.143,36.71,120.77,0
1118458.0,0.481,-0.194,-0.226,-20.09,-115.19,0
1118463.0,-0.105,0.354,0.085,69.07,51.13,0
1118468.0,0.414,-0.369,-0.289,-36.18,-124.87,0
1118473.0,-0.309,0.236,0.085,36.44,74.63,0
1118478.0,-0.278,-0.273,-0.143,-41.22,117.17,0
1118483.0,-0.053,0.335,0.018,80.56,71.25,0
1118488.0,-0.376,-0.245,-0.267,-27.96,125.39,0
1118493.0,0.175,0.253,0.13,49.27,-53.27,0
1118498.0,-0.237,-0.228,-0.241,-34.02,135.44,0
1118503.0,0.189,0.284,0.018,56.25,-84.6,0
1118508.0,-0.122,-0.348,-0.152,-60.71,141.25,0
1118513.0,0.136,0.356,0.037,68.35,-74.82,0
1118518.0,-0.17,-0.283,-0.214,-45.98,141.59,0
1118523.0,0.124,0.38,0.116,65.88,-47.01,0
1118528.0,-0.28,-0.417,-0.26,-47.51,132.85,0
1118533.0,0.069,0.318,-0.008,77.59,-96.95,0
1118538.0,-0.33,-0.273,-0.277,-32.4,129.94,0
1118543.0,0.081,0.306,0.133,63.02,-31.51,0
1118548.0,-0.225,-0.197,-0.195,-33.46,130.94,0
1118553.0,0.041,0.208,-0.138,55.34,-163.54,0
1118558.0,-0.208,-0.24,-0.272,-35.02,142.54,0
1118563.0,0.031,0.277,0.14,62.64,-12.54,0
1118568.0,-0.232,-0.266,-0.241,-38.53,136.02,0
1118573.0,0.141,0.289,-0.018,63.78,-97.28,0
1118578.0,-0.194,-0.379,-0.169,-55.83,131.05,0
1118583.0,0.05,0.411,0.075,77.58,-33.72,0
1118588.0,-0.187,-0.295,-0.26,-42.68,144.3,0
1118593.0,0.144,0.339,0.159,57.72,-42.07,0
1118598.0,-0.22,-0.273,-0.152,-45.62,124.63,0
1118603.0,-0.034,0.265,-0.114,65.9,163.59,0
1118608.0,-0.062,-0.273,-0.152,-59.0,157.74,0
1118613.0,0.038,0.299,0.142,63.73,-15.06,0
1118618.0,-0.192,-0.221,-0.324,-30.37,149.45,0
1118623.0,0.022,0.304,-0.241,51.47,-174.88,0
1118628.0,-0.223,-0.381,-0.104,-57.18,115.08,0
1118633.0,0.124,0.459,0.253,58.48,-26.25,0
1118638.0,-0.23,-0.36,-0.375,-39.29,148.48,0
1118643.0,-0.06,0.368,-0.257,54.32,166.91,0
1118648.0,-0.117,-0.353,0.006,-71.57,87.12,0
1118653.0,0.031,0.385,0.19,63.4,-9.29,0
1118658.0,-0.136,-0.278,-0.322,-38.5,157.04,0
