time_ms,accel_x,accel_y,accel_z,pitch,roll,sync
1445745.0,-0.006,0.021,0.009,62.8,31.04,0
1445750.0,-0.001,0.005,-0.0,79.09,100.34,0
1445755.0,0.021,0.017,0.009,36.16,-65.51,0
1445760.0,0.016,-0.015,0.014,-34.28,-48.19,0
1445765.0,-0.001,0.005,0.007,33.19,7.13,0
1445770.0,-0.003,-0.012,-0.024,-26.51,172.27,0
1445775.0,-0.001,-0.034,0.033,-45.26,1.51,0
1445780.0,-0.013,0.019,-0.026,32.82,154.13,0
1445785.0,-0.022,0.012,0.014,23.99,57.65,0
1445790.0,0.004,-0.01,0.002,-65.18,-60.27,0
1445795.0,-0.018,-0.026,-0.005,-55.34,105.67,0
1445800.0,-0.006,-0.012,-0.003,-62.87,114.27,0
1445805.0,0.025,0.031,-0.003,50.43,-95.73,0
1445810.0,0.025,-0.019,0.041,-21.97,-32.13,0
1445815.0,-0.013,0.009,0.002,35.83,80.14,0
1445820.0,-0.003,0.019,-0.0,80.21,92.8,0
1445825.0,0.004,-0.01,-0.007,-49.49,-151.96,0
1445830.0,-0.006,0.017,0.019,39.95,16.61,0
1445835.0,-0.003,-0.012,-0.01,-49.74,161.43,0
1445840.0,0.004,0.021,-0.012,59.21,-162.13,0
1445845.0,0.004,-0.012,-0.007,-55.56,-151.96,0
1445850.0,0.023,0.002,0.038,2.87,-31.16,0
1445855.0,-0.02,-0.0,-0.031,-0.25,147.37,0
1445860.0,0.023,0.009,0.002,22.12,-84.47,0
1445865.0,0.016,0.007,-0.024,13.68,-146.62,0
1445870.0,-0.025,-0.012,-0.012,-23.71,116.05,0
1445875.0,0.009,0.005,0.021,11.34,-22.13,0
1445880.0,-0.027,-0.005,0.021,-8.14,51.84,0
1445885.0,0.004,-0.01,-0.058,-9.57,-176.12,0
1445890.0,0.011,0.017,-0.005,53.81,-114.04,0
1445895.0,0.004,-0.0,0.009,-0.9,-22.55,0
1445900.0,0.013,-0.015,-0.026,-26.04,-153.02,0
1445905.0,-0.006,0.009,0.014,31.62,21.75,0
1445910.0,0.018,-0.0,0.033,-0.24,-28.72,0
1445915.0,0.009,0.026,-0.012,60.3,-144.36,0
1445920.0,0.013,-0.012,0.009,-36.41,-55.08,0
1445925.0,0.004,-0.031,0.021,-55.2,-10.36,0
1445930.0,-0.003,0.029,-0.024,49.59,172.27,0
1445935.0,0.004,-0.005,-0.012,-21.22,-162.13,0
1445940.0,-0.006,0.005,-0.019,12.95,163.65,0
1445945.0,0.009,-0.022,-0.026,-37.9,-161.83,0
1445950.0,0.035,0.002,-0.0,3.65,-90.26,0
1445955.0,-0.006,-0.017,-0.007,-61.27,142.35,0
1445960.0,-0.013,-0.038,-0.022,-56.74,149.38,0
1445965.0,0.004,0.021,-0.019,47.34,-168.55,0
1445970.0,0.013,-0.007,0.024,-15.03,-29.56,0
1445975.0,-0.027,-0.031,0.026,-39.64,46.11,0
1445980.0,0.004,0.021,-0.034,32.24,-173.38,0
1445985.0,-0.018,-0.007,0.029,-12.34,31.69,0
1445990.0,-0.001,-0.0,-0.0,-10.14,100.34,0
1445995.0,0.002,-0.005,0.031,-9.07,-2.8,0
1446000.0,-0.013,0.009,-0.01,30.29,127.16,0
1446005.0,-0.003,0.021,0.021,44.67,8.7,0
1446010.0,0.004,0.007,-0.012,28.85,-162.13,0
1446015.0,-0.02,-0.007,-0.005,-19.59,103.88,0
1446020.0,0.002,-0.007,-0.029,-14.24,-177.0,0
1446025.0,0.013,-0.015,-0.0,-47.12,-90.68,0
1446030.0,0.013,-0.012,-0.0,-41.97,-90.68,0
1446035.0,0.004,-0.007,0.014,-26.49,-15.39,0
1446040.0,-0.006,-0.005,-0.007,-28.08,142.35,0
1446045.0,0.002,-0.007,-0.01,-36.69,-171.15,0
1446050.0,-0.018,-0.012,0.019,-25.08,42.88,0
1446055.0,-0.006,-0.003,-0.026,-5.38,167.93,0
1446060.0,-0.001,0.017,0.045,20.11,1.11,0
1446065.0,0.021,-0.0,0.002,-0.44,-83.83,0
1446070.0,0.009,-0.005,0.033,-8.17,-14.62,0
1446075.0,0.006,-0.036,0.014,-66.69,-23.93,0
1446080.0,-0.015,0.007,-0.0,24.74,90.6,0
1446085.0,-0.01,0.019,0.009,53.47,47.99,0
1446090.0,-0.022,-0.01,-0.007,-22.42,108.13,0
1446095.0,0.018,0.002,0.033,3.36,-28.72,0
1446100.0,-0.01,0.029,-0.036,37.26,163.84,0
1446105.0,0.016,-0.007,0.019,-16.52,-39.9,0
1446110.0,0.013,-0.007,0.009,-24.05,-55.08,0
1446115.0,-0.027,0.005,-0.003,9.61,95.36,0
1446120.0,0.006,-0.01,-0.034,-15.86,-169.4,0
1446125.0,-0.013,-0.026,-0.0,-64.13,90.71,0
1446130.0,0.025,0.002,0.005,4.94,-79.7,0
1446135.0,0.018,-0.01,-0.01,-25.18,-118.05,0
1446140.0,-0.008,-0.0,0.002,-1.09,74.51,0
1446145.0,0.025,-0.019,0.019,-31.3,-53.27,0
1446150.0,-0.025,0.017,-0.003,33.64,95.88,0
1446155.0,0.002,-0.017,0.009,-60.59,-9.15,0
1446160.0,-0.006,-0.017,-0.012,-51.64,154.96,0
1446165.0,0.002,0.002,0.019,6.69,-4.56,0
1446170.0,0.013,-0.017,0.033,-25.18,-22.01,0
1446175.0,0.002,0.019,0.024,38.56,-3.65,0
1446180.0,0.021,0.002,0.021,4.3,-44.02,0
1446185.0,-0.018,-0.007,0.014,-17.96,51.15,0
1446190.0,-0.02,0.019,0.031,27.25,32.9,0
1446195.0,0.004,-0.0,0.021,-0.42,-10.36,0
1446200.0,-0.015,-0.026,-0.01,-55.68,122.57,0
1446205.0,-0.013,-0.003,0.002,-11.08,80.14,0
1446210.0,-0.01,0.005,0.012,16.36,41.52,0
1446215.0,0.011,-0.024,-0.012,-55.7,-137.56,0
1446220.0,-0.008,0.009,0.002,48.39,74.51,0
1446225.0,0.016,-0.022,-0.005,-52.54,-107.31,0
1446230.0,-0.025,-0.005,-0.0,-11.27,90.37,0
1446235.0,0.002,0.021,-0.007,70.68,-168.33,0
1446240.0,0.023,-0.024,0.007,-44.99,-73.07,0
1446245.0,0.004,-0.024,0.036,-33.83,-6.24,0
1446250.0,-0.003,-0.0,0.048,-0.19,3.92,0
1446255.0,-0.006,-0.003,-0.017,-8.14,161.48,0
1446260.0,-0.01,-0.015,-0.029,-25.3,160.11,0
1446265.0,0.004,-0.005,0.019,-14.31,-11.63,0
1446270.0,0.025,0.024,0.017,38.04,-56.9,0
1446275.0,0.006,-0.017,0.012,-51.65,-28.09,0
1446280.0,-0.001,0.007,-0.015,25.76,176.54,0
1446285.0,0.004,0.005,0.029,9.12,-7.79,0
1446290.0,-0.02,-0.017,0.012,-36.04,59.48,0
1446295.0,-0.006,0.009,0.033,15.55,9.64,0
1446300.0,0.004,0.024,-0.015,57.69,-164.93,0
1446305.0,0.028,-0.038,-0.019,-48.62,-124.74,0
1446310.0,0.004,-0.026,0.031,-40.33,-7.2,0
1446315.0,0.011,-0.005,-0.022,-11.47,-152.93,0
1446320.0,-0.008,-0.019,0.031,-31.12,14.59,0
1446325.0,-0.034,-0.022,-0.01,-31.27,105.81,0
1446330.0,0.002,0.005,-0.007,31.69,-168.33,0
1446335.0,-0.013,-0.017,-0.007,-48.82,119.75,0
1446340.0,0.011,-0.005,-0.012,-16.75,-137.56,0
1446345.0,-0.006,-0.015,0.031,-24.77,10.37,0
1446350.0,0.002,0.017,0.012,54.35,-7.32,0
1446355.0,-0.001,-0.022,0.038,-29.64,1.32,0
1446360.0,-0.015,-0.015,0.014,-34.88,47.02,0
1446365.0,0.006,-0.005,0.036,-7.76,-10.0,0
1446370.0,0.013,-0.046,-0.005,-72.53,-110.15,0
1446375.0,-0.01,0.031,-0.029,45.22,160.11,0
1446380.0,0.002,-0.003,-0.022,-6.69,-176.0,0
1446385.0,-0.022,-0.01,-0.038,-12.33,149.76,0
1446390.0,-0.003,-0.034,-0.067,-26.59,177.21,0
1446395.0,0.023,-0.022,-0.012,-39.79,-117.74,0
1446400.0,-0.001,-0.012,0.031,-21.39,1.62,0
1446405.0,0.033,-0.029,0.029,-33.66,-48.8,0
1446410.0,-0.015,0.005,0.019,10.76,38.75,0
1446415.0,0.006,0.019,0.026,35.2,-13.54,0
1446420.0,-0.003,-0.019,-0.038,-26.58,175.14,0
1446425.0,-0.03,-0.015,-0.034,-17.95,138.68,0
1446430.0,-0.003,-0.034,-0.007,-76.57,155.98,0
1446435.0,-0.049,-0.038,-0.012,-37.44,103.97,0
1446440.0,0.033,-0.0,0.012,-0.26,-70.11,0
1446445.0,-0.037,-0.026,0.007,-35.28,79.19,0
1446450.0,0.002,-0.0,0.012,-0.77,-7.32,0
1446455.0,-0.001,-0.029,0.007,-76.24,7.13,0
1446460.0,0.021,-0.026,-0.005,-51.26,-103.46,0
1446465.0,0.021,0.009,-0.007,23.23,-109.56,0
1446470.0,0.002,-0.01,-0.026,-20.15,-176.72,0
1446475.0,0.021,-0.022,0.009,-43.7,-65.51,0
1446480.0,0.013,-0.019,-0.019,-39.35,-145.07,0
1446485.0,0.004,0.019,0.029,33.37,-7.79,0
1446490.0,0.023,0.002,-0.0,5.53,-90.4,0
1446495.0,-0.003,-0.012,-0.012,-43.99,164.91,0
1446500.0,0.009,0.041,-0.005,76.13,-119.63,0
1446505.0,0.016,-0.003,0.005,-8.78,-73.75,0
1446510.0,-0.027,0.031,-0.007,47.69,105.1,0
1446515.0,0.004,-0.0,0.019,-0.47,-11.63,0
1446520.0,-0.01,-0.017,-0.031,-27.15,161.52,0
1446525.0,0.009,0.009,0.009,36.3,-42.73,0
1446530.0,-0.018,-0.005,-0.062,-4.36,164.22,0
1446535.0,-0.018,-0.026,-0.026,-39.77,146.35,0
1446540.0,-0.003,0.021,-0.005,74.5,146.53,0
1446545.0,0.006,-0.019,0.033,-29.63,-10.7,0
1446550.0,-0.006,-0.007,-0.015,-25.22,158.69,0
1446555.0,0.011,0.014,-0.046,16.82,-166.34,0
1446560.0,0.013,0.024,0.005,59.05,-71.06,0
1446565.0,0.016,-0.026,-0.012,-52.97,-127.38,0
1446570.0,-0.001,-0.005,0.019,-14.59,2.65,0
1446575.0,0.011,-0.003,-0.003,-12.64,-102.97,0
1446580.0,-0.003,-0.003,0.005,-24.25,35.26,0
1446585.0,0.009,-0.024,-0.031,-36.58,-164.46,0
1446590.0,0.013,-0.01,-0.003,-35.35,-100.73,0
1446595.0,-0.027,0.012,-0.019,19.49,125.36,0
1446600.0,0.011,0.019,0.009,52.55,-49.67,0
1446605.0,-0.001,0.017,0.021,37.79,2.35,0
1446610.0,0.002,-0.038,0.002,-85.99,-34.17,0
1446615.0,0.009,0.012,-0.06,11.02,-171.75,0
1446620.0,0.004,0.014,-0.024,30.19,-170.78,0
1446625.0,-0.008,-0.012,-0.031,-20.58,165.55,0
1446630.0,0.006,0.012,-0.017,33.19,-159.56,0
1446635.0,-0.006,-0.003,0.017,-8.28,18.85,0
1446640.0,0.011,-0.029,0.014,-58.04,-37.99,0
1446645.0,-0.03,0.024,-0.012,36.62,112.28,0
1446650.0,0.002,-0.003,0.007,-19.57,-12.19,0
1446655.0,0.021,-0.019,-0.0,-43.06,-90.44,0
1446660.0,-0.013,-0.01,0.009,-31.43,53.76,0
1446665.0,0.035,0.017,-0.015,23.64,-112.52,0
1446670.0,-0.044,0.029,0.014,31.73,72.1,0
1446675.0,-0.006,-0.005,-0.005,-33.33,131.13,0
1446680.0,0.018,-0.031,0.024,-46.21,-37.54,0
1446685.0,-0.02,0.002,0.029,3.66,35.04,0
1446690.0,0.004,0.012,-0.034,19.21,-173.38,0
1446695.0,-0.01,0.009,-0.007,36.39,125.08,0
1446700.0,0.018,-0.017,-0.026,-27.73,-145.4,0
1446705.0,0.011,0.012,-0.065,10.18,-170.29,0
1446710.0,-0.02,-0.007,0.019,-14.89,46.52,0
1446715.0,0.009,0.009,-0.012,32.25,-144.36,0
1446720.0,-0.01,0.029,0.009,63.78,47.99,0
1446725.0,0.028,-0.012,0.012,-21.85,-67.02,0
1446730.0,-0.001,-0.005,0.002,-64.13,21.46,0
1446735.0,0.002,-0.0,0.005,-1.88,-18.14,0
1446740.0,0.021,-0.029,-0.005,-53.66,-103.46,0
1446745.0,-0.022,0.012,-0.015,23.85,122.93,0
1446750.0,0.011,-0.019,-0.012,-49.6,-137.56,0
1446755.0,0.025,-0.007,0.014,-14.14,-60.84,0
1446760.0,-0.001,-0.0,-0.022,-0.42,177.68,0
1446765.0,0.011,0.007,-0.019,17.5,-150.13,0
1446770.0,-0.015,-0.005,-0.041,-6.47,159.54,0
1446775.0,0.011,0.002,0.002,11.17,-78.62,0
1446780.0,-0.02,-0.017,-0.003,-39.96,97.27,0
1446785.0,0.009,-0.01,0.019,-24.99,-24.61,0
1446790.0,0.021,-0.043,-0.0,-64.46,-90.44,0
1446795.0,-0.025,0.036,0.009,53.41,69.22,0
1446800.0,-0.001,-0.015,-0.007,-63.02,173.18,0
1446805.0,0.002,-0.026,-0.053,-26.62,-178.36,0
1446810.0,-0.027,-0.012,0.033,-15.74,39.21,0
1446815.0,-0.003,-0.015,-0.005,-67.78,146.53,0
1446820.0,-0.015,-0.0,0.012,-0.47,52.23,0
1446825.0,-0.006,0.014,0.019,35.63,16.61,0
1446830.0,-0.025,0.005,-0.01,9.85,111.42,0
1446835.0,-0.025,0.019,0.021,30.1,49.25,0
1446840.0,0.013,0.024,0.002,60.11,-80.6,0
1446845.0,-0.02,0.026,-0.007,50.82,110.13,0
1446850.0,0.009,-0.017,-0.0,-62.79,-91.06,0
1446855.0,0.004,-0.07,-0.007,-83.18,-151.96,0
1446860.0,-0.008,0.005,0.074,3.56,6.21,0
1446865.0,0.033,-0.026,0.038,-27.82,-40.55,0
1446870.0,-0.044,-0.026,-0.036,-24.98,129.36,0
1446875.0,-0.02,-0.031,-0.067,-24.04,163.4,0
1446880.0,-0.049,0.005,-0.06,3.43,140.91,0
1446885.0,-0.037,0.005,-0.067,3.46,151.3,0
1446890.0,0.018,-0.041,-0.036,-45.3,-153.13,0
1446895.0,-0.018,-0.017,0.009,-40.24,61.9,0
1446900.0,0.013,-0.003,-0.005,-10.08,-110.15,0
1446905.0,-0.008,-0.003,0.029,-4.92,15.76,0
1446910.0,-0.013,-0.053,0.005,-75.51,70.19,0
1446915.0,0.021,0.043,-0.026,51.95,-142.04,0
1446920.0,0.04,0.007,0.019,9.04,-64.5,0
1446925.0,0.016,-0.019,0.05,-20.17,-17.58,0
1446930.0,0.023,-0.019,0.012,-36.7,-62.88,0
1446935.0,0.021,0.005,-0.022,8.78,-136.4,0
1446940.0,0.018,0.041,-0.0,65.73,-90.5,0
1446945.0,0.011,-0.005,-0.01,-18.53,-131.28,0
1446950.0,-0.02,-0.003,0.005,-7.08,76.99,0
1446955.0,0.013,0.017,0.017,37.82,-39.1,0
1446960.0,0.009,0.007,0.007,32.14,-51.09,0
1446965.0,-0.018,-0.003,0.002,-8.17,82.78,0
1446970.0,-0.027,-0.017,-0.005,-31.45,100.31,0
1446975.0,-0.02,-0.017,-0.029,-25.7,145.27,0
1446980.0,0.023,-0.003,0.024,-4.41,-44.12,0
1446985.0,0.004,0.017,-0.017,43.71,-166.99,0
1446990.0,-0.01,0.009,-0.036,14.08,163.84,0
1446995.0,0.013,-0.007,-0.043,-9.2,-162.68,0
1447000.0,0.018,-0.012,-0.005,-32.65,-105.15,0
1447005.0,0.002,-0.005,-0.01,-26.66,-171.15,0
1447010.0,-0.008,0.021,0.036,30.27,12.71,0
1447015.0,0.009,-0.007,0.031,-12.86,-15.69,0
1447020.0,-0.003,-0.017,-0.019,-40.82,170.38,0
1447025.0,-0.01,-0.0,0.029,-0.3,20.1,0
1447030.0,-0.008,-0.029,0.005,-72.17,60.14,0
1447035.0,-0.003,-0.003,-0.0,-37.94,92.8,0
1447040.0,0.011,0.026,-0.007,63.06,-123.5,0
1447045.0,-0.01,0.009,0.031,16.07,18.66,0
1447050.0,-0.015,0.012,-0.022,24.0,144.92,0
1447055.0,-0.01,-0.01,-0.036,-14.53,163.84,0
1447060.0,0.009,0.017,-0.007,55.56,-130.17,0
1447065.0,0.025,-0.005,0.031,-7.04,-39.43,0
1447070.0,-0.032,0.024,0.021,31.71,56.25,0
1447075.0,-0.015,-0.017,0.024,-30.92,32.66,0
1447080.0,-0.001,0.021,0.009,66.15,5.33,0
1447085.0,0.002,0.009,-0.01,43.7,-171.15,0
1447090.0,-0.015,0.007,0.017,17.31,42.56,0
1447095.0,-0.03,0.014,0.017,22.71,60.72,0
1447100.0,-0.018,0.007,-0.0,21.71,90.52,0
1447105.0,-0.013,-0.029,-0.003,-65.61,101.25,0
1447110.0,-0.01,-0.007,-0.029,-13.44,160.11,0
1447115.0,-0.013,-0.019,0.021,-37.74,31.0,0
1447120.0,-0.008,-0.01,0.007,-42.33,48.94,0
1447125.0,0.009,-0.003,-0.012,-9.71,-144.36,0
1447130.0,-0.015,-0.003,0.043,-3.21,19.55,0
1447135.0,0.006,-0.05,-0.0,-82.87,-91.46,0
1447140.0,0.013,-0.01,-0.05,-10.56,-165.03,0
1447145.0,-0.008,0.005,0.012,17.94,34.31,0
1447150.0,0.028,0.007,0.017,12.22,-59.21,0
1447155.0,0.013,0.005,0.014,13.3,-43.52,0
1447160.0,0.009,0.007,0.031,12.32,-15.69,0
1447165.0,0.047,0.007,-0.024,7.57,-117.15,0
1447170.0,-0.015,-0.007,0.002,-25.48,81.66,0
1447175.0,-0.027,0.009,-0.0,19.09,90.34,0
1447180.0,-0.03,-0.005,-0.015,-8.53,116.13,0
1447185.0,-0.046,0.007,-0.017,8.1,110.05,0
1447190.0,0.016,-0.022,0.029,-33.59,-29.07,0
1447195.0,0.011,-0.034,-0.017,-59.0,-146.75,0
1447200.0,0.006,-0.007,-0.036,-11.34,-170.09,0
1447205.0,-0.039,-0.01,0.048,-8.96,39.39,0
1447210.0,0.006,-0.003,0.012,-10.8,-28.09,0
1447215.0,0.025,0.002,0.009,4.71,-69.7,0
1447220.0,-0.015,-0.015,-0.01,-38.77,122.57,0
1447225.0,0.004,-0.005,-0.007,-30.74,-151.96,0
1447230.0,0.009,0.036,-0.043,39.02,-168.63,0
1447235.0,0.013,-0.005,-0.022,-10.96,-148.15,0
1447240.0,0.016,0.021,0.048,23.04,-18.41,0
1447245.0,0.006,0.007,0.021,17.48,-16.42,0
1447250.0,0.002,-0.034,0.007,-77.96,-12.19,0
1447255.0,-0.015,0.009,-0.007,29.1,115.72,0
1447260.0,0.004,0.021,0.012,59.81,-18.32,0
1447265.0,-0.003,0.019,-0.005,72.65,146.53,0
1447270.0,0.004,0.031,0.019,57.94,-11.63,0
1447275.0,-0.044,0.009,-0.031,9.9,125.43,0
1447280.0,0.004,-0.022,-0.01,-64.2,-158.12,0
1447285.0,-0.02,0.005,-0.01,11.74,115.92,0
1447290.0,-0.025,-0.003,0.036,-3.36,34.77,0
1447295.0,0.002,-0.022,0.019,-48.72,-4.56,0
1447300.0,-0.006,-0.015,-0.022,-32.92,165.37,0
1447305.0,0.018,0.007,0.002,20.88,-83.03,0
1447310.0,0.013,-0.031,0.009,-62.26,-55.08,0
1447315.0,0.013,-0.005,0.014,-14.18,-43.52,0
1447320.0,-0.013,0.009,0.024,19.21,28.38,0
1447325.0,0.016,0.012,0.012,30.83,-53.36,0
1447330.0,0.006,0.007,-0.029,13.36,-167.69,0
1447335.0,-0.006,0.002,-0.012,9.47,154.96,0
1447340.0,0.011,0.002,-0.043,2.86,-165.62,0
1447345.0,0.002,-0.003,0.005,-27.67,-18.14,0
1447350.0,0.009,-0.024,0.033,-34.96,-14.62,0
1447355.0,0.023,-0.012,-0.017,-22.98,-126.26,0
1447360.0,0.023,-0.003,0.005,-6.2,-78.65,0
1447365.0,-0.003,-0.024,-0.012,-62.47,164.91,0
1447370.0,0.016,0.019,0.026,31.81,-31.25,0
1447375.0,-0.01,0.012,0.014,33.81,36.35,0
1447380.0,-0.006,-0.012,-0.017,-34.21,161.48,0
1447385.0,0.006,-0.012,-0.005,-56.55,-128.13,0
1447390.0,-0.018,0.029,0.021,45.86,39.51,0
1447395.0,-0.006,-0.007,-0.034,-12.13,170.45,0
1447400.0,-0.03,-0.0,-0.022,-0.25,126.25,0
1447405.0,0.018,0.017,0.007,40.29,-68.98,0
1447410.0,-0.015,0.007,0.002,24.51,81.66,0
1447415.0,-0.003,-0.007,0.012,-30.93,15.49,0
1447420.0,0.004,-0.003,-0.007,-17.06,-151.96,0
1447425.0,0.009,-0.024,-0.0,-70.15,-91.06,0
1447430.0,-0.015,-0.012,-0.007,-35.64,115.72,0
1447435.0,0.042,-0.0,-0.036,-0.16,-130.51,0
1447440.0,-0.003,-0.029,0.012,-67.01,15.49,0
1447445.0,0.006,0.005,0.031,8.33,-11.51,0
1447450.0,0.002,0.007,-0.01,35.48,-171.15,0
1447455.0,-0.03,-0.003,-0.029,-3.53,134.3,0
1447460.0,0.002,-0.01,0.021,-24.42,-4.06,0
1447465.0,-0.027,-0.017,-0.0,-31.87,90.34,0
1447470.0,-0.003,0.033,-0.015,65.95,167.3,0
1447475.0,0.006,0.019,-0.019,43.07,-161.92,0
1447480.0,-0.027,0.014,0.021,22.31,51.84,0
1447485.0,-0.008,0.014,-0.017,37.16,154.53,0
1447490.0,-0.003,-0.012,0.024,-26.81,7.83,0
1447495.0,0.018,0.045,0.069,32.32,-14.78,0
1447500.0,-0.006,0.005,-0.019,12.95,163.65,0
1447505.0,-0.015,-0.005,-0.05,-5.36,163.18,0
1447510.0,0.016,0.005,0.019,10.59,-39.9,0
1447515.0,0.03,0.012,0.024,17.07,-51.82,0
1447520.0,-0.003,-0.015,0.036,-22.03,5.23,0
1447525.0,0.002,0.007,0.012,30.53,-7.32,0
1447530.0,-0.015,-0.003,0.012,-7.54,52.23,0
1447535.0,0.002,0.014,-0.024,30.47,-176.4,0
1447540.0,-0.032,0.033,-0.036,34.67,138.42,0
1447545.0,0.033,-0.007,-0.017,-11.29,-117.4,0
1447550.0,-0.003,-0.05,0.041,-51.12,4.61,0
1447555.0,-0.018,-0.048,0.026,-56.7,33.97,0
1447560.0,0.035,-0.034,0.067,-24.04,-27.65,0
1447565.0,0.025,-0.005,0.029,-7.37,-41.7,0
1447570.0,-0.018,-0.029,-0.005,-57.62,105.67,0
1447575.0,-0.013,0.005,0.031,7.86,22.54,0
1447580.0,-0.01,-0.031,-0.0,-71.52,90.88,0
1447585.0,-0.042,-0.0,-0.07,-0.11,149.14,0
1447590.0,-0.025,-0.019,-0.031,-25.81,141.57,0
1447595.0,0.002,-0.015,-0.015,-44.84,-174.04,0
1447600.0,-0.042,-0.003,-0.024,-3.04,120.1,0
1447605.0,-0.008,-0.003,-0.012,-9.94,146.4,0
1447610.0,0.002,-0.026,-0.003,-83.6,-149.31,0
1447615.0,0.023,0.014,0.014,27.67,-58.37,0
1447620.0,-0.015,-0.034,-0.043,-36.29,160.59,0
1447625.0,-0.013,-0.007,0.014,-20.97,42.13,0
1447630.0,0.021,0.009,0.043,11.18,-25.71,0
1447635.0,0.021,-0.019,0.041,-23.0,-27.01,0
1447640.0,-0.001,0.019,-0.029,33.31,178.26,0
1447645.0,-0.027,-0.029,-0.007,-45.71,105.1,0
1447650.0,0.009,-0.031,0.024,-51.01,-20.09,0
1447655.0,0.009,0.019,0.036,27.3,-13.67,0
1447660.0,-0.01,-0.024,-0.046,-27.23,167.1,0
1447665.0,-0.006,0.005,-0.0,39.23,91.62,0
1447670.0,-0.001,-0.015,-0.007,-63.02,173.18,0
1447675.0,-0.008,-0.022,-0.022,-43.15,159.63,0
1447680.0,0.021,0.021,-0.024,33.96,-139.38,0
1447685.0,-0.015,-0.003,0.026,-4.82,30.21,0
1447690.0,0.011,-0.029,-0.024,-47.44,-155.29,0
1447695.0,-0.01,0.002,0.026,4.53,21.77,0
1447700.0,-0.008,0.014,0.009,48.89,40.56,0
1447705.0,-0.003,0.007,-0.012,29.2,164.91,0
1447710.0,-0.001,-0.007,0.074,-5.66,0.68,0
1447715.0,0.004,0.024,-0.015,57.69,-164.93,0
1447720.0,0.002,0.002,0.024,5.36,-3.65,0
1447725.0,-0.003,0.009,0.009,43.37,19.16,0
1447730.0,0.002,-0.0,0.009,-0.96,-9.15,0
1447735.0,-0.008,-0.026,0.019,-52.09,23.0,0
1447740.0,0.013,0.017,0.017,37.82,-39.1,0
1447745.0,0.016,-0.01,0.036,-13.98,-23.95,0
1447750.0,-0.03,0.009,0.029,12.89,46.02,0
1447755.0,0.013,0.007,0.031,11.75,-23.54,0
1447760.0,0.004,-0.003,0.014,-9.83,-15.39,0
1447765.0,-0.013,-0.015,0.026,-26.48,26.15,0
1447770.0,-0.008,0.009,-0.017,26.68,154.53,0
1447775.0,-0.008,0.007,0.002,40.02,74.51,0
1447780.0,-0.018,0.005,0.005,14.24,75.3,0
1447785.0,0.025,-0.0,-0.003,-0.36,-95.73,0
1447790.0,0.002,0.002,-0.012,10.36,-172.88,0
1447795.0,-0.013,-0.012,0.014,-32.35,42.13,0
1447800.0,-0.015,-0.007,0.007,-23.63,65.27,0
1447805.0,0.016,0.009,0.014,23.84,-48.19,0
1447810.0,-0.008,-0.015,0.024,-30.05,18.72,0
1447815.0,-0.006,0.002,0.014,8.31,21.75,0
1447820.0,0.009,-0.022,0.029,-36.01,-16.93,0
1447825.0,0.023,-0.043,-0.01,-59.94,-112.89,0
1447830.0,-0.003,-0.007,-0.01,-35.56,161.43,0
1447835.0,0.002,-0.0,0.033,-0.27,-2.6,0
1447840.0,0.021,-0.007,-0.012,-17.03,-120.41,0
1447845.0,-0.001,-0.017,-0.01,-59.98,174.85,0
1447850.0,-0.018,0.024,0.014,46.4,51.15,0
1447855.0,0.028,-0.003,-0.031,-3.49,-138.32,0
1447860.0,0.009,-0.012,0.031,-20.66,-15.69,0
1447865.0,-0.022,-0.031,-0.031,-39.1,144.37,0
1447870.0,0.002,-0.015,-0.015,-44.84,-174.04,0
1447875.0,-0.006,0.005,0.017,14.78,18.85,0
1447880.0,0.013,0.026,0.014,53.19,-43.52,0
1447885.0,0.002,-0.026,-0.012,-65.23,-172.88,0
1447890.0,0.021,0.002,0.021,4.3,-44.02,0
1447895.0,-0.008,-0.0,-0.038,-0.23,168.17,0
1447900.0,-0.032,-0.003,-0.034,-3.15,136.46,0
1447905.0,-0.025,-0.026,0.009,-44.95,69.22,0
1447910.0,0.016,-0.026,0.005,-58.02,-73.75,0
1447915.0,-0.013,0.017,0.007,48.58,61.34,0
1447920.0,-0.022,-0.017,0.002,-36.9,84.31,0
1447925.0,-0.001,-0.0,0.012,-0.77,4.25,0
1447930.0,0.018,-0.012,-0.003,-33.32,-97.96,0
1447935.0,0.009,-0.003,-0.041,-3.5,-167.98,0
1447940.0,-0.039,-0.017,-0.022,-20.69,118.99,0
1447945.0,-0.008,0.012,-0.003,54.4,107.59,0
1447950.0,0.016,0.007,-0.015,18.07,-132.45,0
1447955.0,0.006,0.005,-0.029,8.9,-167.69,0
1447960.0,0.025,0.026,0.009,43.96,-69.7,0
1447965.0,0.016,-0.012,-0.031,-19.07,-153.09,0
1447970.0,0.006,-0.022,-0.012,-57.8,-152.54,0
1447975.0,-0.01,-0.012,-0.026,-23.07,158.47,0
1447980.0,-0.006,-0.003,0.005,-19.24,50.76,0
1447985.0,-0.034,0.009,0.033,11.12,45.88,0
1447990.0,-0.006,-0.026,-0.007,-70.71,142.35,0
1447995.0,-0.006,-0.01,0.036,-15.05,9.01,0
1448000.0,-0.022,0.026,-0.031,34.22,144.37,0
1448005.0,-0.013,-0.015,-0.024,-28.0,151.94,0
1448010.0,0.013,0.029,0.014,55.57,-43.52,0
1448015.0,0.011,0.026,0.019,49.96,-30.29,0
1448020.0,-0.015,0.002,0.033,3.49,24.56,0
1448025.0,-0.001,0.026,0.002,84.76,21.46,0
1448030.0,0.004,0.036,-0.026,53.16,-171.6,0
1448035.0,-0.01,-0.012,-0.015,-34.13,144.26,0
1448040.0,0.002,-0.007,0.031,-13.32,-2.8,0
1448045.0,0.021,-0.003,0.026,-4.38,-38.3,0
1448050.0,0.023,0.002,0.021,4.06,-47.16,0
1448055.0,-0.039,-0.012,-0.041,-12.09,136.2,0
1448060.0,-0.015,-0.024,-0.062,-20.56,166.27,0
1448065.0,0.011,-0.017,0.017,-40.28,-33.76,0
1448070.0,0.021,-0.005,0.053,-5.01,-21.49,0
1448075.0,0.023,-0.029,0.043,-30.66,-28.24,0
1448080.0,0.006,-0.038,0.026,-55.01,-13.54,0
1448085.0,-0.013,-0.024,-0.038,-30.72,161.53,0
1448090.0,-0.001,-0.0,-0.024,-0.38,177.91,0
1448095.0,-0.003,-0.017,-0.003,-76.21,127.98,0
1448100.0,0.025,0.002,0.017,4.21,-56.9,0
1448105.0,-0.018,0.014,0.005,37.92,75.3,0
1448110.0,0.025,0.012,-0.055,10.99,-155.25,0
1448115.0,-0.02,0.009,-0.072,7.18,164.45,0
1448120.0,-0.032,0.007,-0.031,8.92,134.35,0
1448125.0,0.033,0.029,0.014,38.75,-66.48,0
1448130.0,-0.025,0.036,0.026,44.75,43.48,0
1448135.0,0.004,-0.0,-0.005,-1.45,-141.68,0
1448140.0,-0.018,0.002,-0.019,4.88,137.6,0
1448145.0,0.004,-0.007,-0.022,-18.41,-169.79,0
1448150.0,-0.006,0.009,0.024,21.07,13.4,0
1448155.0,0.006,0.014,0.045,17.24,-7.92,0
1448160.0,0.023,-0.036,0.072,-25.6,-17.84,0
1448165.0,-0.01,-0.0,0.062,-0.15,9.56,0
1448170.0,-0.003,-0.038,-0.029,-52.92,173.54,0
1448175.0,0.018,-0.005,-0.017,-11.24,-132.79,0
1448180.0,-0.001,-0.041,-0.017,-67.48,177.03,0
1448185.0,-0.006,-0.015,0.045,-17.64,7.13,0
1448190.0,0.025,-0.058,0.009,-64.78,-69.7,0
1448195.0,0.025,0.009,0.024,15.13,-46.95,0
1448200.0,-0.008,0.024,0.005,68.65,60.14,0
1448205.0,0.009,-0.024,0.005,-67.76,-61.99,0
1448210.0,-0.015,0.017,0.007,44.69,65.27,0
1448215.0,0.025,0.007,0.019,12.47,-53.27,0
1448220.0,-0.015,0.026,0.005,58.68,73.11,0
1448225.0,-0.001,0.024,-0.024,44.6,177.91,0
1448230.0,-0.018,0.014,-0.046,16.19,158.88,0
1448235.0,0.004,0.017,-0.007,63.38,-151.96,0
1448240.0,0.013,0.005,0.041,6.18,-18.4,0
1448245.0,0.013,-0.0,-0.024,-0.33,-150.77,0
1448250.0,0.03,0.009,-0.01,16.51,-107.84,0
1448255.0,-0.018,-0.026,-0.046,-28.43,158.88,0
1448260.0,-0.032,0.007,-0.05,6.71,147.61,0
1448265.0,0.004,-0.015,0.002,-72.77,-60.27,0
1448270.0,0.013,-0.043,0.017,-63.69,-39.1,0
1448275.0,-0.003,-0.007,0.041,-10.23,4.61,0
1448280.0,0.023,-0.029,-0.015,-46.67,-122.2,0
1448285.0,-0.013,-0.005,-0.019,-12.04,146.37,0
1448290.0,-0.013,0.005,0.009,16.2,53.76,0
1448295.0,-0.013,0.002,-0.003,9.68,101.25,0
1448300.0,-0.008,-0.0,-0.0,-1.13,91.14,0
1448305.0,-0.015,0.017,-0.003,47.04,99.51,0
1448310.0,-0.027,0.026,0.009,42.27,70.91,0
1448315.0,0.009,0.007,-0.0,38.91,-91.06,0
1448320.0,-0.008,0.014,0.017,37.59,25.9,0
1448325.0,-0.001,0.005,-0.003,59.73,161.04,0
1448330.0,0.004,0.014,0.005,66.9,-40.2,0
1448335.0,-0.001,0.019,-0.024,38.22,177.91,0
1448340.0,-0.001,0.009,-0.003,73.99,161.04,0
1448345.0,-0.015,0.019,-0.031,28.63,154.02,0
1448350.0,-0.006,0.007,-0.043,9.15,172.54,0
1448355.0,0.013,0.026,-0.019,48.02,-145.07,0
1448360.0,-0.006,-0.022,0.026,-39.03,12.21,0
1448365.0,0.002,-0.019,-0.005,-75.0,-162.96,0
1448370.0,0.009,0.009,0.033,15.28,-14.62,0
1448375.0,0.025,-0.017,-0.022,-26.83,-130.45,0
1448380.0,-0.013,-0.0,-0.0,-0.71,90.71,0
1448385.0,0.023,-0.012,-0.005,-27.21,-102.11,0
1448390.0,-0.008,0.002,0.038,3.28,11.93,0
1448395.0,0.002,-0.036,-0.029,-51.27,-177.0,0
1448400.0,0.002,-0.012,0.029,-22.98,-3.04,0
1448405.0,-0.001,-0.034,0.012,-70.63,4.25,0
1448410.0,-0.013,-0.0,0.021,-0.37,31.0,0
1448415.0,0.004,0.019,-0.015,51.62,-164.93,0
1448420.0,-0.006,0.009,-0.01,39.89,149.8,0
1448425.0,-0.022,-0.029,-0.019,-44.31,130.74,0
1448430.0,0.013,0.019,-0.036,26.25,-159.5,0
1448435.0,-0.025,0.014,0.036,18.08,34.77,0
1448440.0,0.004,0.038,0.031,50.71,-7.2,0
1448445.0,-0.008,0.036,-0.015,65.08,150.97,0
1448450.0,-0.001,0.014,-0.034,22.86,178.51,0
1448455.0,0.002,-0.0,-0.005,-1.77,-162.96,0
1448460.0,0.013,0.041,-0.026,53.74,-153.02,0
1448465.0,0.002,-0.01,0.026,-20.37,-3.32,0
1448470.0,-0.018,0.002,0.045,2.63,21.26,0
1448475.0,-0.015,0.002,0.019,5.24,38.75,0
1448480.0,-0.013,0.012,-0.019,26.98,146.37,0
1448485.0,0.016,-0.019,-0.007,-47.82,-114.81,0
1448490.0,-0.015,-0.007,-0.015,-19.22,133.62,0
1448495.0,0.011,-0.017,0.019,-37.57,-30.29,0
1448500.0,-0.01,-0.022,-0.003,-63.63,103.73,0
1448505.0,-0.003,-0.026,-0.024,-47.45,172.27,0
1448510.0,-0.01,-0.029,-0.031,-41.21,161.52,0
1448515.0,0.002,-0.003,-0.0,-59.16,-96.03,0
1448520.0,-0.001,-0.003,-0.01,-14.64,174.85,0
1448525.0,-0.008,-0.015,0.005,-57.38,60.14,0
1448530.0,-0.001,0.005,-0.0,79.09,100.34,0
1448535.0,-0.02,-0.003,-0.036,-3.54,150.96,0
1448540.0,0.011,-0.007,0.007,-29.22,-57.67,0
1448545.0,-0.015,0.007,0.021,14.97,35.48,0
1448550.0,-0.006,0.012,0.019,30.79,16.61,0
1448555.0,0.009,-0.015,-0.0,-59.08,-91.06,0
1448560.0,0.009,-0.015,0.033,-22.85,-14.62,0
1448565.0,-0.018,0.007,-0.017,16.03,133.81,0
1448570.0,0.028,0.012,-0.015,20.61,-117.54,0
1448575.0,-0.015,0.002,-0.017,5.6,137.98,0
1448580.0,-0.001,-0.0,-0.034,-0.27,178.51,0
1448585.0,0.011,0.017,0.036,23.91,-17.24,0
1448590.0,-0.037,-0.007,0.041,-7.64,42.22,0
1448595.0,0.023,0.012,0.002,27.01,-84.47,0
1448600.0,-0.018,-0.005,0.002,-15.55,82.78,0
1448605.0,0.011,0.007,-0.012,23.13,-137.56,0
1448610.0,0.013,-0.05,-0.007,-73.07,-118.57,0
1448615.0,0.002,-0.012,0.007,-59.37,-12.19,0
1448620.0,-0.013,-0.01,0.062,-8.73,11.69,0
1448625.0,0.009,-0.01,-0.003,-47.04,-106.37,0
1448630.0,-0.013,-0.01,-0.007,-33.34,119.75,0
1448635.0,0.004,0.007,0.019,19.91,-11.63,0
1448640.0,-0.027,-0.007,-0.017,-12.9,121.87,0
1448645.0,0.002,-0.012,0.005,-68.13,-18.14,0
1448650.0,0.023,-0.003,0.029,-3.98,-38.91,0
1448655.0,-0.027,-0.007,0.033,-9.68,39.21,0
1448660.0,0.002,0.026,-0.046,29.82,-178.1,0
1448665.0,-0.006,0.019,-0.026,35.03,167.93,0
1448670.0,-0.001,0.019,-0.017,48.27,177.03,0
1448675.0,0.025,0.019,0.029,26.4,-41.7,0
1448680.0,-0.025,0.007,0.014,13.8,60.22,0
1448685.0,0.013,-0.0,-0.003,-0.67,-100.73,0
1448690.0,-0.008,0.033,-0.012,66.41,146.4,0
1448695.0,-0.013,-0.022,-0.01,-53.4,127.16,0
1448700.0,-0.008,-0.015,0.021,-32.44,20.65,0
1448705.0,0.009,-0.0,0.038,-0.23,-12.85,0
1448710.0,0.021,0.005,0.05,4.88,-22.41,0
1448715.0,-0.001,-0.007,-0.003,-69.8,161.04,0
1448720.0,0.011,0.005,-0.041,6.24,-164.81,0
1448725.0,0.006,-0.003,0.019,-7.27,-18.36,0
1448730.0,-0.018,-0.012,0.005,-33.63,75.3,0
1448735.0,0.016,-0.015,0.002,-42.17,-81.99,0
1448740.0,0.002,-0.026,-0.0,-86.71,-96.03,0
1448745.0,-0.003,-0.019,-0.046,-22.88,175.9,0
1448750.0,0.013,-0.017,0.009,-45.81,-55.08,0
1448755.0,0.011,0.012,0.007,41.98,-57.67,0
1448760.0,-0.022,0.002,0.002,5.66,84.31,0
1448765.0,-0.018,-0.0,-0.019,-0.35,137.6,0
1448770.0,0.016,-0.005,0.024,-9.82,-33.74,0
1448775.0,-0.02,0.021,-0.024,34.31,140.27,0
1448780.0,0.004,0.024,-0.015,57.69,-164.93,0
1448785.0,-0.001,-0.01,-0.012,-38.68,175.86,0
1448790.0,-0.008,0.019,-0.01,56.36,140.38,0
1448795.0,-0.02,0.007,-0.007,18.22,110.13,0
1448800.0,-0.01,0.014,-0.046,16.87,167.1,0
1448805.0,-0.027,-0.005,0.019,-8.48,55.09,0
1448810.0,0.011,-0.017,-0.01,-48.9,-131.28,0
1448815.0,-0.006,0.019,-0.007,63.97,142.35,0
1448820.0,-0.013,-0.003,0.019,-6.35,34.08,0
1448825.0,0.006,-0.003,0.002,-20.9,-70.49,0
1448830.0,0.018,-0.01,-0.017,-21.35,-132.79,0
1448835.0,0.013,-0.007,0.007,-25.77,-62.5,0
1448840.0,-0.022,-0.038,0.048,-36.11,25.17,0
1448845.0,0.011,-0.0,-0.017,-0.45,-146.75,0
1448850.0,-0.003,0.005,-0.003,48.11,127.98,0
1448855.0,0.023,0.017,-0.026,25.29,-138.96,0
1448860.0,0.016,-0.0,-0.019,-0.37,-140.57,0
1448865.0,0.011,0.036,-0.041,40.18,-164.81,0
1448870.0,0.013,-0.007,-0.029,-12.97,-154.98,0
1448875.0,-0.015,0.002,-0.012,6.54,128.52,0
1448880.0,-0.015,0.002,-0.015,6.06,133.62,0
1448885.0,-0.006,0.017,-0.007,60.81,142.35,0
1448890.0,-0.003,0.017,0.012,53.56,15.49,0
1448895.0,-0.013,0.007,0.009,23.79,53.76,0
1448900.0,0.002,0.017,0.009,60.12,-9.15,0
1448905.0,-0.01,-0.007,-0.012,-24.63,139.25,0
1448910.0,0.021,0.014,-0.007,32.93,-109.56,0
1448915.0,-0.006,-0.01,-0.0,-59.79,91.62,0
1448920.0,0.004,-0.015,0.002,-72.77,-60.27,0
1448925.0,-0.003,-0.003,-0.022,-6.64,171.43,0
1448930.0,0.009,-0.019,-0.048,-21.58,-169.74,0
1448935.0,0.03,-0.007,0.002,-13.61,-85.78,0
1448940.0,-0.008,-0.034,-0.0,-76.54,91.14,0
1448945.0,0.011,-0.003,-0.007,-10.87,-123.5,0
1448950.0,-0.02,-0.029,0.012,-51.17,59.48,0
1448955.0,-0.01,-0.024,-0.026,-40.24,158.47,0
1448960.0,0.004,-0.024,-0.003,-79.03,-123.16,0
1448965.0,-0.015,-0.022,-0.019,-41.42,141.72,0
1448970.0,0.002,-0.026,0.014,-61.67,-6.09,0
1448975.0,-0.03,0.014,0.017,22.71,60.72,0
1448980.0,-0.013,0.036,-0.026,50.52,154.13,0
1448985.0,-0.01,0.012,0.012,36.83,41.52,0
1448990.0,-0.003,-0.019,-0.007,-67.4,155.98,0
1448995.0,0.013,0.017,0.005,49.34,-71.06,0
1449000.0,-0.006,-0.012,-0.005,-58.19,131.13,0
1449005.0,-0.008,-0.031,0.012,-65.44,34.31,0
1449010.0,0.021,-0.005,0.009,-12.29,-65.51,0
1449015.0,-0.001,0.007,0.002,71.13,21.46,0
1449020.0,0.016,0.007,-0.031,11.32,-153.09,0
1449025.0,0.002,-0.007,-0.0,-78.27,-96.03,0
1449030.0,0.011,-0.022,0.012,-53.26,-43.21,0
1449035.0,0.004,0.017,-0.015,47.82,-164.93,0
1449040.0,-0.008,-0.007,0.041,-10.07,11.25,0
1449045.0,0.013,-0.065,-0.005,-77.5,-110.15,0
1449050.0,0.009,-0.015,-0.048,-16.57,-169.74,0
1449055.0,0.028,-0.01,-0.034,-12.56,-140.41,0
1449060.0,0.006,-0.01,-0.007,-45.17,-139.35,0
1449065.0,-0.008,-0.015,0.026,-27.94,17.12,0
1449070.0,-0.006,-0.015,0.036,-21.86,9.01,0
1449075.0,-0.003,0.017,-0.01,58.25,161.43,0
1449080.0,-0.022,0.026,-0.017,42.98,127.03,0
1449085.0,-0.013,-0.017,-0.012,-43.75,133.36,0
1449090.0,-0.018,-0.022,-0.022,-37.81,140.91,0
1449095.0,0.006,0.026,0.007,70.18,-41.92,0
1449100.0,0.013,0.007,0.036,10.41,-20.67,0
1449105.0,-0.006,0.014,0.014,42.89,21.75,0
1449110.0,0.006,0.012,-0.005,55.84,-128.13,0
1449115.0,-0.001,0.019,0.021,41.58,2.35,0
1449120.0,0.009,0.019,-0.012,51.83,-144.36,0
1449125.0,0.009,0.019,0.012,52.32,-36.37,0
1449130.0,0.002,0.021,0.019,48.3,-4.56,0
1449135.0,0.004,0.007,-0.043,9.19,-174.83,0
1449140.0,-0.013,0.007,0.017,18.5,37.74,0
1449145.0,-0.003,0.005,-0.019,13.29,170.38,0
1449150.0,-0.003,0.014,0.019,36.39,9.77,0
1449155.0,0.006,-0.031,-0.017,-60.01,-159.56,0
1449160.0,-0.01,0.002,0.029,4.2,20.1,0
1449165.0,0.004,0.019,0.014,52.2,-15.39,0
1449170.0,-0.006,-0.005,-0.024,-11.3,166.77,0
1449175.0,0.016,0.002,0.005,7.69,-73.75,0
1449180.0,0.013,0.002,0.019,5.48,-35.38,0
1449185.0,0.002,-0.036,-0.0,-87.58,-96.03,0
1449190.0,-0.003,-0.019,0.005,-73.64,35.26,0
1449195.0,0.009,0.019,0.029,32.46,-16.93,0
1449200.0,0.035,0.002,-0.005,3.61,-98.04,0
1449205.0,0.004,0.007,-0.015,25.03,-164.93,0
1449210.0,0.009,0.014,0.024,29.29,-20.09,0
1449215.0,-0.003,-0.022,0.043,-26.75,4.36,0
1449220.0,0.016,0.017,-0.019,33.58,-140.57,0
1449225.0,0.011,-0.005,0.014,-15.35,-37.99,0
1449230.0,-0.022,0.012,0.012,24.99,62.23,0
1449235.0,0.03,-0.01,-0.031,-12.61,-135.97,0
1449240.0,-0.037,-0.007,0.033,-8.41,47.8,0
1449245.0,-0.01,0.021,0.048,23.64,12.36,0
1449250.0,0.002,-0.01,0.038,-14.31,-2.28,0
1449255.0,-0.003,-0.017,-0.041,-22.43,175.42,0
1449260.0,-0.008,0.021,-0.041,27.18,168.84,0
1449265.0,-0.03,-0.026,0.038,-28.75,37.82,0
1449270.0,-0.034,-0.029,0.002,-39.97,86.28,0
1449275.0,-0.013,-0.043,0.021,-60.02,31.0,0
1449280.0,0.018,-0.003,-0.024,-4.83,-142.83,0
1449285.0,-0.02,-0.003,0.031,-3.96,32.9,0
1449290.0,-0.027,-0.01,-0.003,-19.61,95.36,0
1449295.0,0.021,-0.026,-0.017,-44.77,-129.3,0
1449300.0,-0.001,-0.005,0.012,-22.68,4.25,0
1449305.0,0.013,0.012,-0.034,18.03,-158.18,0
1449310.0,0.018,-0.017,-0.01,-39.25,-118.05,0
1449315.0,-0.025,-0.007,0.014,-14.4,60.22,0
1449320.0,0.002,-0.024,-0.007,-72.72,-168.33,0
1449325.0,-0.027,0.029,-0.012,43.8,114.03,0
1449330.0,-0.008,-0.012,-0.029,-22.02,164.41,0
1449335.0,0.028,-0.0,0.002,-0.33,-85.42,0
1449340.0,-0.006,0.019,0.021,40.65,14.84,0
1449345.0,-0.01,-0.017,-0.0,-58.28,90.88,0
1449350.0,0.009,0.005,0.026,9.53,-18.38,0
1449355.0,-0.003,-0.022,-0.022,-44.68,171.43,0
1449360.0,-0.006,-0.01,0.007,-47.18,38.9,0
1449365.0,-0.01,-0.019,-0.026,-34.14,158.47,0
1449370.0,0.021,0.007,0.009,17.18,-65.51,0
1449375.0,0.011,-0.003,-0.012,-8.83,-137.56,0
1449380.0,0.016,-0.015,-0.017,-32.04,-136.81,0
1449385.0,0.013,0.005,0.019,11.24,-35.38,0
1449390.0,0.013,-0.043,0.031,-52.02,-23.54,0
1449395.0,-0.013,-0.017,-0.015,-41.1,138.5,0
1449400.0,0.011,-0.01,0.019,-23.88,-30.29,0
1449405.0,0.018,-0.034,0.005,-60.76,-75.79,0
1449410.0,-0.001,0.005,0.005,44.5,10.74,0
1449415.0,-0.006,-0.031,0.014,-63.95,21.75,0
1449420.0,0.009,-0.005,0.009,-21.11,-42.73,0
1449425.0,0.023,0.021,-0.01,40.51,-112.89,0
1449430.0,-0.018,-0.015,0.036,-20.02,26.26,0
1449435.0,0.004,0.031,-0.0,82.8,-92.35,0
1449440.0,0.004,0.017,0.029,29.93,-7.79,0
1449445.0,0.011,0.029,0.021,49.86,-27.41,0
1449450.0,0.002,0.019,-0.029,33.29,-177.0,0
1449455.0,-0.034,-0.01,0.007,-15.5,78.46,0
1449460.0,0.033,0.009,0.021,13.57,-56.77,0
1449465.0,0.002,-0.036,0.014,-68.4,-6.09,0
1449470.0,-0.006,0.021,0.012,58.51,25.63,0
1449475.0,-0.001,-0.01,0.026,-20.39,1.92,0
1449480.0,-0.022,-0.01,-0.005,-22.98,102.44,0
1449485.0,0.023,-0.015,-0.024,-23.53,-136.26,0
1449490.0,0.004,0.005,0.002,45.79,-60.27,0
1449495.0,0.016,0.024,-0.041,28.48,-158.76,0
1449500.0,-0.022,-0.019,0.017,-34.69,53.49,0
1449505.0,-0.001,-0.003,0.012,-12.17,4.25,0
1449510.0,0.009,0.005,0.041,6.37,-12.11,0
1449515.0,-0.001,-0.005,0.031,-9.08,1.62,0
1449520.0,-0.015,0.019,-0.005,49.84,107.99,0
1449525.0,-0.025,0.002,0.007,4.95,74.2,0
1449530.0,-0.046,0.012,0.012,13.87,75.71,0
1449535.0,0.018,-0.017,0.005,-41.91,-75.79,0
1449540.0,-0.015,0.009,0.012,26.03,52.23,0
1449545.0,-0.02,0.009,0.024,16.85,40.11,0
1449550.0,-0.003,0.033,0.002,83.23,55.68,0
1449555.0,0.011,0.009,0.036,14.12,-17.24,0
1449560.0,0.011,0.009,0.007,35.65,-57.67,0
1449565.0,-0.03,0.009,0.014,16.0,64.37,0
1449570.0,0.013,0.012,-0.01,35.38,-125.83,0
1449575.0,0.016,0.019,0.024,33.59,-33.74,0
1449580.0,0.018,-0.007,-0.036,-10.29,-153.13,0
1449585.0,0.018,0.031,0.014,53.22,-52.14,0
1449590.0,0.009,0.031,-0.022,52.94,-158.16,0
1449595.0,-0.01,-0.007,-0.012,-24.63,139.25,0
1449600.0,-0.003,-0.015,0.029,-26.8,6.53,0
1449605.0,0.002,-0.012,-0.017,-35.53,-174.88,0
1449610.0,0.002,-0.007,0.012,-31.66,-7.32,0
1449615.0,-0.025,-0.022,0.014,-37.2,60.22,0
1449620.0,0.002,-0.019,-0.019,-44.91,-175.51,0
1449625.0,0.009,-0.007,-0.005,-36.27,-119.63,0
1449630.0,-0.003,-0.024,-0.015,-58.29,167.3,0
1449635.0,-0.001,-0.003,-0.017,-8.57,177.03,0
1449640.0,-0.018,-0.034,-0.024,-48.43,143.8,0
1449645.0,0.006,-0.015,-0.0,-66.53,-91.46,0
1449650.0,-0.022,0.002,-0.019,4.32,130.74,0
1449655.0,-0.006,-0.0,0.036,-0.25,9.01,0
1449660.0,-0.013,-0.012,0.002,-42.93,80.14,0
1449665.0,0.013,0.021,-0.01,52.13,-125.83,0
1449670.0,0.004,0.036,0.007,77.33,-29.11,0
1449675.0,0.035,0.012,0.009,18.03,-74.96,0
1449680.0,-0.013,0.007,-0.048,8.04,165.03,0
1449685.0,0.011,0.019,-0.017,43.19,-146.75,0
1449690.0,0.006,-0.031,0.019,-57.39,-18.36,0
1449695.0,0.018,0.002,-0.0,6.97,-90.5,0
1449700.0,-0.02,-0.0,-0.01,-0.41,115.92,0
1449705.0,-0.003,0.024,0.007,71.96,24.98,0
1449710.0,0.018,-0.015,0.019,-28.86,-43.9,0
1449715.0,-0.01,-0.012,0.029,-21.74,20.1,0
1449720.0,0.016,-0.017,-0.062,-14.72,-165.72,0
1449725.0,-0.03,-0.024,-0.026,-31.24,131.83,0
1449730.0,-0.006,-0.019,-0.015,-51.09,158.69,0
1449735.0,0.025,-0.048,-0.017,-57.53,-123.61,0
1449740.0,0.013,-0.015,0.002,-46.73,-80.6,0
1449745.0,0.018,0.026,-0.036,32.92,-153.13,0
1449750.0,-0.003,-0.024,-0.0,-82.26,92.8,0
1449755.0,-0.001,-0.029,0.002,-85.25,21.46,0
1449760.0,-0.001,0.019,-0.029,33.31,178.26,0
1449765.0,-0.003,-0.029,0.031,-42.86,6.03,0
1449770.0,0.002,-0.022,0.05,-23.41,-1.73,0
1449775.0,-0.018,0.041,0.007,64.91,68.29,0
1449780.0,0.013,0.012,-0.005,39.43,-110.15,0
1449785.0,-0.006,0.009,0.019,25.41,16.61,0
1449790.0,0.013,0.012,0.002,40.83,-80.6,0
1449795.0,-0.02,-0.01,0.014,-21.63,54.66,0
1449800.0,-0.013,-0.01,-0.022,-21.1,149.38,0
1449805.0,-0.01,0.021,-0.015,50.08,144.26,0
1449810.0,0.011,-0.034,0.014,-61.85,-37.99,0
1449815.0,-0.006,-0.0,0.012,-0.7,25.63,0
1449820.0,0.006,0.014,-0.024,29.69,-165.34,0
1449825.0,0.002,-0.022,0.005,-77.35,-18.14,0
1449830.0,-0.008,0.007,0.009,29.54,40.56,0
1449835.0,0.013,0.002,-0.029,4.01,-154.98,0
1449840.0,0.002,-0.0,-0.005,-1.77,-162.96,0
1449845.0,0.011,-0.003,0.012,-8.96,-43.21,0
1449850.0,-0.008,0.017,-0.031,27.19,165.55,0
1449855.0,-0.01,-0.029,-0.024,-47.72,156.55,0
1449860.0,0.021,-0.007,-0.003,-19.42,-97.05,0
1449865.0,0.016,-0.019,0.012,-44.3,-53.36,0
1449870.0,0.013,0.005,0.017,12.21,-39.1,0
1449875.0,0.009,0.021,0.026,37.79,-18.38,0
1449880.0,-0.001,-0.026,0.029,-42.83,1.76,0
1449885.0,0.016,0.012,0.026,21.1,-31.25,0
1449890.0,0.028,-0.005,-0.012,-9.25,-113.54,0
1449895.0,-0.018,0.029,-0.015,51.35,129.47,0
1449900.0,-0.018,-0.003,-0.01,-7.22,118.9,0
1449905.0,-0.02,0.019,-0.043,21.72,155.15,0
1449910.0,0.004,0.014,0.009,54.33,-22.55,0
1449915.0,-0.032,-0.017,0.017,-25.14,62.59,0
1449920.0,0.011,0.007,-0.0,32.34,-90.83,0
1449925.0,0.023,0.005,0.029,7.19,-38.91,0
1449930.0,-0.018,-0.022,0.014,-43.79,51.15,0
1449935.0,-0.006,-0.003,-0.003,-22.34,114.27,0
1449940.0,-0.042,-0.022,-0.005,-27.4,96.79,0
1449945.0,0.033,-0.031,0.009,-42.64,-73.91,0
1449950.0,-0.01,-0.031,0.021,-52.73,26.05,0
1449955.0,-0.001,-0.0,0.002,-3.81,21.46,0
1449960.0,-0.02,0.012,0.031,17.76,32.9,0
1449965.0,0.025,-0.015,-0.022,-23.47,-130.45,0
1449970.0,0.013,0.026,0.014,53.19,-43.52,0
1449975.0,-0.003,0.007,0.007,42.19,24.98,0
1449980.0,0.006,-0.024,-0.012,-60.44,-152.54,0
1449985.0,-0.001,-0.003,-0.015,-9.95,176.54,0
1449990.0,-0.003,-0.015,-0.036,-21.85,174.82,0
1449995.0,-0.018,-0.022,-0.017,-41.61,133.81,0
1450000.0,0.023,0.014,-0.005,31.06,-102.11,0
1450005.0,-0.01,0.021,0.005,61.87,66.12,0
1450010.0,-0.01,0.005,0.009,18.21,47.99,0
1450015.0,-0.042,-0.024,-0.031,-24.85,126.96,0
1450020.0,-0.015,-0.019,-0.012,-44.75,128.52,0
1450025.0,0.028,-0.007,-0.034,-9.54,-140.41,0
1450030.0,-0.001,-0.036,0.012,-71.82,4.25,0
1450035.0,0.011,-0.017,0.014,-43.19,-37.99,0
1450040.0,0.013,0.036,-0.005,68.11,-110.15,0
1450045.0,0.042,0.009,-0.01,12.26,-102.99,0
1450050.0,-0.001,0.014,0.012,50.18,4.25,0
1450055.0,-0.027,-0.003,-0.022,-4.2,128.58,0
1450060.0,0.006,-0.005,-0.0,-38.12,-91.46,0
1450065.0,0.018,0.017,0.007,40.29,-68.98,0
1450070.0,-0.008,-0.026,-0.048,-28.54,170.48,0
1450075.0,0.004,-0.005,0.009,-25.89,-22.55,0
1450080.0,0.009,-0.01,-0.01,-36.71,-138.22,0
1450085.0,0.004,0.029,-0.029,44.42,-172.29,0
1450090.0,0.013,-0.031,-0.055,-28.82,-166.28,0
1450095.0,0.006,-0.024,-0.007,-68.12,-139.35,0
1450100.0,0.011,0.024,0.024,42.19,-25.01,0
1450105.0,-0.003,0.026,-0.036,35.85,174.82,0
1450110.0,-0.001,0.009,0.002,75.7,21.46,0
1450115.0,0.016,0.002,-0.005,7.65,-107.31,0
1450120.0,-0.003,-0.017,-0.024,-34.82,172.27,0
1450125.0,-0.01,0.009,0.014,28.1,36.35,0
1450130.0,-0.018,0.007,0.009,19.35,61.9,0
1450135.0,0.016,-0.036,0.014,-59.43,-48.19,0
1450140.0,-0.015,-0.0,-0.048,-0.18,162.4,0
1450145.0,0.009,-0.017,-0.015,-44.98,-149.08,0
1450150.0,-0.01,-0.017,-0.003,-57.54,103.73,0
1450155.0,0.025,0.026,-0.01,43.84,-110.93,0
1450160.0,-0.003,-0.0,0.012,-0.75,15.49,0
1450165.0,-0.003,-0.024,-0.019,-50.9,170.38,0
1450170.0,-0.02,-0.026,-0.043,-29.07,155.15,0
1450175.0,-0.013,0.005,-0.029,8.33,156.02,0
1450180.0,0.004,-0.007,0.017,-23.29,-13.26,0
1450185.0,-0.027,0.014,0.024,21.46,48.85,0
1450190.0,-0.003,-0.0,-0.007,-1.14,155.98,0
1450195.0,0.002,0.012,0.026,24.25,-3.32,0
1450200.0,-0.039,0.002,-0.007,3.21,100.61,0
1450205.0,0.018,0.021,0.002,49.28,-83.03,0
1450210.0,-0.008,0.012,0.021,27.33,20.65,0
1450215.0,-0.022,-0.026,0.033,-33.39,33.91,0
1450220.0,0.025,0.017,0.045,17.71,-29.32,0
1450225.0,0.018,0.012,0.005,32.07,-75.79,0
1450230.0,-0.018,0.019,-0.026,30.83,146.35,0
1450235.0,0.004,-0.0,-0.031,-0.29,-172.88,0
1450240.0,0.006,0.031,0.005,75.82,-53.72,0
1450245.0,-0.001,0.002,0.026,4.88,1.92,0
1450250.0,-0.008,0.026,-0.05,27.13,170.92,0
1450255.0,-0.001,0.014,-0.031,24.41,178.39,0
1450260.0,-0.015,-0.007,-0.015,-19.22,133.62,0
1450265.0,-0.013,-0.034,-0.005,-67.76,111.06,0
1450270.0,-0.034,-0.012,-0.007,-19.03,102.05,0
1450275.0,0.006,-0.026,-0.012,-62.71,-152.54,0
1450280.0,0.004,-0.005,-0.022,-12.64,-169.79,0
1450285.0,0.011,-0.024,0.017,-50.36,-33.76,0
1450290.0,-0.01,-0.019,0.005,-59.37,66.12,0
1450295.0,-0.001,-0.015,0.019,-37.38,2.65,0
1450300.0,-0.013,-0.003,0.024,-5.4,28.38,0
1450305.0,0.004,-0.029,0.038,-36.99,-5.85,0
1450310.0,0.006,-0.003,-0.046,-3.17,-172.14,0
1450315.0,-0.013,0.005,-0.019,11.28,146.37,0
1450320.0,0.013,-0.01,-0.026,-18.13,-153.02,0
1450325.0,0.018,0.012,-0.022,22.6,-139.91,0
1450330.0,0.006,0.007,-0.0,48.08,-91.46,0
1450335.0,-0.006,-0.019,-0.015,-51.09,158.69,0
1450340.0,-0.001,-0.034,0.009,-74.31,5.33,0
1450345.0,-0.006,0.026,-0.017,55.72,161.48,0
1450350.0,-0.003,-0.003,-0.003,-31.6,127.98,0
1450355.0,-0.008,0.009,-0.0,49.43,91.14,0
1450360.0,-0.01,-0.022,-0.041,-27.23,165.65,0
1450365.0,-0.013,-0.017,-0.005,-50.86,111.06,0
1450370.0,0.018,0.009,-0.015,21.97,-128.48,0
1450375.0,0.011,-0.022,0.005,-61.03,-67.35,0
1450380.0,0.006,-0.007,0.005,-43.19,-53.72,0
1450385.0,-0.003,-0.015,-0.026,-28.55,172.96,0
1450390.0,-0.013,-0.022,0.002,-59.0,80.14,0
1450395.0,-0.003,-0.012,-0.01,-49.74,161.43,0
1450400.0,-0.013,0.005,0.002,19.54,80.14,0
1450405.0,-0.027,0.009,0.021,15.22,51.84,0
1450410.0,-0.025,-0.0,0.017,-0.31,56.23,0
1450415.0,0.011,-0.017,0.038,-23.07,-16.21,0
1450420.0,0.004,0.029,0.002,81.04,-60.27,0
1450425.0,-0.015,-0.026,0.002,-59.82,81.66,0
1450430.0,0.002,0.029,-0.007,75.29,-168.33,0
1450435.0,0.033,0.009,0.014,14.82,-66.48,0
1450440.0,-0.001,-0.01,-0.034,-16.12,178.51,0
1450445.0,0.004,-0.007,0.014,-26.49,-15.39,0
1450450.0,-0.01,-0.015,0.019,-33.82,28.83,0
1450455.0,0.004,-0.031,-0.019,-57.79,-168.55,0
1450460.0,-0.003,0.024,0.031,37.37,6.03,0
1450465.0,-0.001,0.009,-0.003,73.99,161.04,0
1450470.0,-0.006,0.002,0.017,7.26,18.85,0
1450475.0,0.011,0.007,0.036,10.63,-17.24,0
1450480.0,-0.015,-0.034,0.017,-56.21,42.56,0
1450485.0,-0.02,-0.019,0.009,-41.11,64.82,0
1450490.0,0.018,-0.0,-0.031,-0.25,-149.71,0
1450495.0,-0.001,-0.007,-0.05,-8.28,179.0,0
1450500.0,-0.015,0.009,0.007,29.3,65.27,0
1450505.0,0.006,-0.007,-0.012,-28.24,-152.54,0
1450510.0,-0.001,0.012,0.007,59.07,7.13,0
1450515.0,0.011,-0.019,0.029,-32.22,-21.22,0
1450520.0,0.004,-0.003,-0.031,-4.63,-172.88,0
1450525.0,-0.003,-0.007,-0.029,-14.17,173.54,0
1450530.0,0.004,-0.005,-0.067,-4.2,-176.67,0
1450535.0,0.028,-0.043,0.057,-34.17,-25.92,0
1450540.0,-0.006,0.012,0.031,20.57,10.37,0
1450545.0,0.013,0.029,-0.041,33.58,-161.73,0
1450550.0,0.004,0.009,-0.034,15.52,-173.38,0
1450555.0,0.013,0.012,-0.046,13.94,-163.54,0
1450560.0,-0.001,-0.0,0.019,-0.48,2.65,0
1450565.0,-0.001,-0.0,0.036,-0.26,1.41,0
1450570.0,-0.015,0.014,0.021,28.41,35.48,0
1450575.0,0.002,0.002,-0.015,8.7,-174.04,0
1450580.0,-0.03,-0.012,0.009,-21.33,72.36,0
1450585.0,-0.001,-0.019,0.012,-58.48,4.25,0
1450590.0,0.006,-0.003,0.014,-9.33,-23.93,0
1450595.0,0.006,0.017,0.009,55.68,-33.8,0
1450600.0,0.004,0.009,-0.026,19.37,-171.6,0
1450605.0,0.002,-0.015,-0.005,-70.39,-162.96,0
1450610.0,-0.01,-0.003,0.009,-10.29,47.99,0
1450615.0,0.033,0.002,-0.0,3.92,-90.28,0
1450620.0,-0.015,-0.029,0.048,-29.97,17.71,0
1450625.0,0.016,0.031,-0.005,61.76,-107.31,0
1450630.0,0.011,-0.0,-0.034,-0.26,-161.77,0
1450635.0,-0.006,-0.012,-0.029,-22.39,168.9,0
1450640.0,0.013,0.014,-0.038,19.21,-160.68,0
1450645.0,-0.008,-0.007,-0.003,-40.97,107.59,0
1450650.0,-0.001,-0.024,0.033,-35.84,1.51,0
1450655.0,0.009,-0.017,0.041,-22.2,-12.11,0
1450660.0,-0.006,-0.007,0.021,-18.36,14.84,0
1450665.0,0.009,-0.043,-0.053,-38.93,-170.65,0
1450670.0,-0.001,-0.01,0.012,-39.42,4.25,0
1450675.0,-0.006,-0.0,0.041,-0.22,7.96,0
1450680.0,0.016,0.009,-0.0,30.67,-90.58,0
1450685.0,-0.01,-0.024,0.002,-66.08,77.94,0
1450690.0,0.013,-0.01,-0.003,-35.35,-100.73,0
1450695.0,0.004,0.029,-0.017,58.71,-166.99,0
1450700.0,-0.008,0.026,-0.024,45.85,161.51,0
1450705.0,0.011,-0.017,0.005,-54.61,-67.35,0
1450710.0,0.016,-0.038,-0.024,-53.12,-146.62,0
1450715.0,-0.013,0.029,-0.022,48.56,149.38,0
1450720.0,0.006,-0.01,-0.053,-10.37,-173.2,0
1450725.0,0.002,-0.026,0.009,-70.2,-9.15,0
1450730.0,-0.006,-0.005,-0.05,-5.57,173.59,0
1450735.0,-0.003,-0.015,0.031,-25.01,6.03,0
1450740.0,-0.008,-0.003,0.033,-4.26,13.58,0
1450745.0,-0.003,0.014,-0.038,20.2,175.14,0
1450750.0,-0.006,0.007,0.005,43.83,50.76,0
1450755.0,-0.006,-0.003,-0.017,-8.14,161.48,0
1450760.0,-0.013,-0.007,-0.0,-29.74,90.71,0
1450765.0,0.009,0.033,0.002,74.93,-75.6,0
1450770.0,-0.013,-0.01,-0.029,-17.11,156.02,0
1450775.0,0.004,0.026,-0.017,56.44,-166.99,0
1450780.0,-0.008,-0.003,-0.007,-13.18,132.33,0
1450785.0,-0.008,0.021,0.045,24.92,10.08,0
1450790.0,-0.03,-0.005,0.007,-9.24,76.66,0
1450795.0,0.011,-0.029,-0.031,-41.03,-160.48,0
1450800.0,-0.003,-0.005,0.014,-18.75,12.97,0
1450805.0,-0.001,-0.024,-0.005,-78.22,169.94,0
1450810.0,0.011,-0.034,-0.031,-45.42,-160.48,0
1450815.0,-0.006,0.012,0.05,13.18,6.45,0
1450820.0,-0.006,0.002,0.031,4.06,10.37,0
1450825.0,0.023,-0.012,0.033,-16.65,-34.66,0
1450830.0,0.009,0.005,0.036,7.17,-13.67,0
1450835.0,-0.003,-0.024,-0.005,-76.17,146.53,0
1450840.0,-0.001,0.007,-0.024,16.24,177.91,0
1450845.0,0.009,-0.026,0.031,-39.48,-15.69,0
1450850.0,0.018,-0.015,-0.007,-36.41,-111.89,0
1450855.0,-0.022,-0.031,0.012,-50.99,62.23,0
1450860.0,-0.001,0.012,-0.015,39.07,176.54,0
1450865.0,0.016,-0.019,0.009,-46.29,-59.34,0
1450870.0,-0.001,-0.007,0.007,-46.06,7.13,0
1450875.0,-0.025,-0.003,-0.012,-5.28,116.05,0
1450880.0,0.011,-0.017,-0.012,-45.82,-137.56,0
1450885.0,-0.015,0.009,-0.012,25.8,128.52,0
1450890.0,-0.01,0.012,-0.034,18.52,162.75,0
1450895.0,0.011,0.019,-0.012,49.12,-137.56,0
1450900.0,-0.01,-0.005,0.005,-23.4,66.12,0
1450905.0,0.023,-0.015,0.021,-24.79,-47.16,0
1450910.0,-0.018,-0.022,-0.003,-50.61,98.24,0
1450915.0,0.002,0.017,-0.0,84.75,-96.03,0
1450920.0,-0.013,-0.012,0.007,-39.64,61.34,0
1450925.0,0.002,0.012,-0.012,44.01,-172.88,0
1450930.0,-0.015,-0.029,-0.007,-59.64,115.72,0
1450935.0,-0.006,-0.0,-0.007,-0.99,142.35,0
1450940.0,0.016,0.007,-0.0,23.85,-90.58,0
1450945.0,-0.01,0.009,-0.007,36.39,125.08,0
1450950.0,-0.006,-0.005,-0.022,-12.44,165.37,0
1450955.0,0.023,-0.038,0.057,-31.91,-21.93,0
1450960.0,0.002,-0.031,-0.019,-58.23,-175.51,0
1450965.0,-0.006,0.005,0.014,16.84,21.75,0
1450970.0,-0.022,-0.003,0.041,-3.16,28.95,0
1450975.0,-0.013,-0.003,0.002,-11.08,80.14,0
1450980.0,0.009,-0.007,0.021,-17.64,-22.13,0
1450985.0,-0.025,-0.003,0.007,-5.65,74.2,0
1450990.0,-0.008,-0.036,-0.017,-62.55,154.53,0
1450995.0,-0.015,-0.01,-0.003,-32.21,99.51,0
1451000.0,-0.018,0.019,0.002,46.89,82.78,0
1451005.0,0.009,0.024,0.007,64.82,-51.09,0
1451010.0,-0.001,-0.005,-0.01,-26.84,174.85,0
1451015.0,-0.001,0.019,0.012,58.06,4.25,0
1451020.0,-0.001,-0.01,0.021,-24.46,2.35,0
1451025.0,0.009,-0.012,0.007,-47.34,-51.09,0
1451030.0,-0.015,0.007,-0.024,13.83,147.69,0
1451035.0,0.018,0.024,0.021,40.21,-40.51,0
1451040.0,0.002,0.019,0.005,75.62,-18.14,0
1451045.0,0.006,-0.01,-0.022,-23.3,-163.81,0
1451050.0,0.009,-0.005,-0.01,-20.75,-138.22,0
1451055.0,0.023,-0.012,-0.034,-16.55,-145.6,0
1451060.0,0.013,-0.022,0.005,-56.7,-71.06,0
1451065.0,-0.027,-0.007,-0.01,-14.25,109.69,0
1451070.0,0.011,0.002,0.014,7.07,-37.99,0
1451075.0,0.018,-0.012,-0.031,-18.51,-149.71,0
1451080.0,0.006,-0.022,0.026,-38.88,-13.54,0
1451085.0,0.004,-0.015,-0.019,-36.39,-168.55,0
1451090.0,-0.008,-0.003,0.002,-16.98,74.51,0
1451095.0,-0.008,0.021,-0.017,48.77,154.53,0
1451100.0,-0.01,0.017,0.017,40.24,32.2,0
1451105.0,-0.003,-0.007,0.029,-14.32,6.53,0
1451110.0,0.009,0.012,0.007,46.57,-51.09,0
1451115.0,-0.006,0.021,0.024,41.18,13.4,0
1451120.0,-0.008,-0.005,0.021,-12.22,20.65,0
1451125.0,0.004,0.007,-0.017,22.02,-166.99,0
1451130.0,-0.001,-0.031,-0.003,-85.06,161.04,0
1451135.0,-0.006,0.017,-0.026,31.49,167.93,0
1451140.0,-0.01,-0.017,-0.015,-43.39,144.26,0
1451145.0,-0.001,0.026,-0.041,32.64,178.77,0
1451150.0,0.004,-0.036,0.024,-56.25,-9.34,0
1451155.0,-0.027,0.017,-0.01,29.87,109.69,0
1451160.0,0.021,0.012,-0.024,20.4,-139.38,0
1451165.0,-0.018,-0.0,-0.003,-0.51,98.24,0
1451170.0,0.023,-0.034,0.024,-45.47,-44.12,0
1451175.0,0.013,0.024,-0.017,47.7,-141.44,0
1451180.0,0.023,-0.003,0.038,-3.28,-31.16,0
1451185.0,0.002,-0.005,0.014,-19.1,-6.09,0
1451190.0,0.016,0.009,-0.024,18.07,-146.62,0
1451195.0,-0.015,-0.005,-0.0,-17.98,90.6,0
1451200.0,0.013,-0.01,0.026,-18.3,-27.26,0
1451205.0,0.004,0.014,-0.007,59.64,-151.96,0
1451210.0,-0.006,-0.026,-0.003,-76.8,114.27,0
1451215.0,-0.013,-0.017,-0.048,-18.79,165.03,0
1451220.0,-0.013,-0.01,-0.005,-35.27,111.06,0
1451225.0,-0.022,-0.0,0.012,-0.36,62.23,0
1451230.0,0.002,-0.003,-0.038,-3.8,-177.74,0
1451235.0,-0.025,0.005,0.009,9.89,69.22,0
1451240.0,-0.015,-0.007,0.005,-24.74,73.11,0
1451245.0,0.013,0.021,-0.012,49.7,-131.97,0
1451250.0,-0.013,-0.038,0.017,-61.38,37.74,0
1451255.0,0.025,-0.012,0.029,-17.59,-41.7,0
1451260.0,-0.03,-0.019,-0.007,-32.34,103.93,0
1451265.0,-0.006,0.012,0.06,11.14,5.42,0
1451270.0,0.004,-0.01,-0.019,-26.29,-168.55,0
1451275.0,-0.01,0.009,-0.026,18.29,158.47,0
1451280.0,0.025,0.009,0.033,12.65,-37.35,0
1451285.0,-0.049,0.002,-0.01,2.57,101.29,0
1451290.0,0.011,-0.168,0.007,-85.53,-57.67,0
1451295.0,0.224,0.165,-0.371,20.83,-148.88,0
1451300.0,-0.106,-0.357,-0.228,-54.86,154.98,0
1451305.0,0.248,0.105,0.615,9.01,-21.97,0
1451310.0,0.049,-0.345,0.153,-65.0,-17.89,0
1451315.0,0.028,-0.115,-0.031,-70.0,-138.32,0
1451320.0,0.21,-0.074,0.201,-14.36,-46.24,0
1451325.0,-0.094,0.031,0.155,9.67,31.23,0
1451330.0,-0.037,-0.522,-0.173,-71.33,167.96,0
1451335.0,-0.257,-0.0,0.263,-0.02,44.32,0
1451340.0,-0.231,-0.122,-0.465,-13.26,153.59,0
1451345.0,-0.104,0.232,-0.328,33.99,162.44,0
1451350.0,-0.54,-0.57,-0.453,-38.98,129.99,0
1451355.0,0.104,-0.204,-0.4,-26.23,-165.36,0
1451360.0,-0.331,-0.067,-0.635,-5.36,152.44,0
1451365.0,0.002,0.381,0.603,32.25,-0.14,0
1451370.0,0.052,0.024,1.008,1.35,-2.94,0
1451375.0,0.353,-0.185,-1.097,-9.1,-162.14,0
1451380.0,-0.602,-0.649,-1.37,-23.45,156.28,0
1451385.0,0.32,0.503,0.574,37.39,-29.12,0
1451390.0,-0.36,-0.417,0.084,-48.43,76.92,0
1451395.0,0.128,0.153,-0.388,20.53,-161.69,0
1451400.0,-0.214,-0.275,0.048,-51.49,77.43,0
1451405.0,0.167,0.084,0.115,22.45,-55.46,0
1451410.0,-0.202,-0.208,-0.35,-27.3,149.99,0
1451415.0,0.322,0.026,0.23,3.78,-54.53,0
1451420.0,-0.334,0.136,0.467,13.37,35.56,0
1451425.0,0.179,0.132,-0.034,35.88,-100.67,0
1451430.0,-0.432,-0.431,-0.285,-39.8,123.43,0
1451435.0,0.176,0.357,0.452,36.3,-21.29,0
1451440.0,-0.221,-0.185,0.297,-26.5,36.7,0
1451445.0,0.136,0.239,-0.204,44.36,-146.35,0
1451450.0,-0.267,-0.242,-0.192,-36.38,125.71,0
1451455.0,0.294,0.086,0.299,11.6,-44.47,0
1451460.0,-0.247,-0.127,0.053,-26.67,78.02,0
1451465.0,0.126,0.081,-0.012,32.69,-95.5,0
1451470.0,-0.303,-0.151,0.031,-26.4,84.16,0
1451475.0,0.382,0.177,0.282,20.43,-53.54,0
1451480.0,-0.255,-0.204,0.064,-37.79,75.79,0
1451485.0,0.397,0.258,0.12,31.96,-73.22,0
1451490.0,-0.233,-0.302,-0.024,-52.17,95.9,0
1451495.0,0.298,0.146,-0.003,26.05,-90.49,0
1451500.0,-0.255,-0.386,-0.012,-56.53,92.73,0
1451505.0,0.318,0.311,0.16,41.17,-63.22,0
1451510.0,-0.315,-0.161,0.017,-27.01,86.98,0
1451515.0,0.404,0.27,0.129,32.53,-72.26,0
1451520.0,-0.31,-0.29,0.076,-42.26,76.13,0
1451525.0,0.351,0.182,0.237,23.23,-55.99,0
1451530.0,-0.233,-0.278,0.014,-49.95,86.51,0
1451535.0,0.351,0.282,0.124,37.17,-70.5,0
1451540.0,-0.257,-0.355,0.045,-53.64,80.0,0
1451545.0,0.413,0.4,0.103,43.18,-76.03,0
1451550.0,-0.212,-0.405,-0.058,-61.56,105.24,0
1451555.0,0.274,0.299,0.053,46.95,-79.17,0
1451560.0,-0.298,-0.443,-0.06,-55.57,101.4,0
1451565.0,0.377,0.428,0.244,43.63,-57.11,0
1451570.0,-0.281,-0.259,0.012,-42.61,87.59,0
1451575.0,0.279,0.316,0.096,46.94,-71.1,0
1451580.0,-0.386,-0.371,-0.062,-43.49,99.18,0
1451585.0,0.385,0.347,0.177,39.34,-65.29,0
1451590.0,-0.3,-0.371,-0.134,-48.47,114.1,0
1451595.0,0.418,0.44,0.139,44.99,-71.65,0
1451600.0,-0.338,-0.402,-0.017,-49.9,92.86,0
1451605.0,0.44,0.318,0.11,35.08,-75.96,0
1451610.0,-0.264,-0.297,-0.024,-48.23,95.21,0
1451615.0,0.444,0.395,0.201,38.99,-65.67,0
1451620.0,-0.42,-0.381,-0.173,-40.0,112.34,0
1451625.0,0.294,0.388,0.012,52.84,-87.7,0
1451630.0,-0.343,-0.362,-0.079,-45.76,102.99,0
1451635.0,0.33,0.474,0.311,46.28,-46.65,0
1451640.0,-0.367,-0.477,-0.053,-52.1,98.19,0
1451645.0,0.365,0.419,0.026,48.82,-85.9,0
1451650.0,-0.269,-0.4,-0.003,-56.07,90.54,0
1451655.0,0.368,0.397,0.155,44.85,-67.09,0
1451660.0,-0.36,-0.393,-0.24,-42.25,123.64,0
1451665.0,0.322,0.359,0.086,47.1,-75.06,0
1451670.0,-0.372,-0.41,-0.139,-45.88,110.49,0
1451675.0,0.387,0.433,0.117,46.97,-73.16,0
1451680.0,-0.341,-0.462,0.038,-53.42,83.61,0
1451685.0,0.5,0.407,0.388,32.76,-52.18,0
1451690.0,-0.422,-0.524,-0.146,-49.57,109.1,0
1451695.0,0.406,0.512,-0.0,51.59,-90.02,0
1451700.0,-0.329,-0.441,-0.067,-52.7,101.55,0
1451705.0,0.406,0.586,0.443,44.3,-42.53,0
1451710.0,-0.173,-0.448,-0.019,-68.73,96.36,0
1451715.0,0.353,0.407,0.045,48.79,-82.69,0
1451720.0,-0.288,-0.544,-0.067,-61.44,103.13,0
1451725.0,0.296,0.416,0.211,48.9,-54.58,0
1451730.0,-0.48,-0.347,-0.201,-33.73,112.76,0
1451735.0,0.389,0.467,0.048,49.95,-83.01,0
1451740.0,-0.437,-0.457,-0.106,-45.52,103.58,0
1451745.0,0.284,0.347,-0.05,50.26,-100.07,0
1451750.0,-0.276,-0.472,-0.266,-50.9,133.91,0
1451755.0,0.325,0.5,0.254,50.52,-52.01,0
1451760.0,-0.279,-0.479,-0.024,-59.72,94.94,0
1451765.0,0.303,0.376,-0.031,50.95,-95.89,0
1451770.0,-0.396,-0.405,-0.204,-42.28,117.22,0
1451775.0,0.373,0.445,0.234,45.32,-57.82,0
1451780.0,-0.41,-0.376,-0.139,-40.96,108.72,0
1451785.0,0.222,0.311,-0.103,51.83,-114.93,0
1451790.0,-0.41,-0.29,-0.278,-30.32,124.11,0
1451795.0,0.203,0.381,0.048,61.32,-76.75,0
1451800.0,-0.36,-0.4,-0.35,-38.55,134.17,0
1451805.0,0.229,0.359,0.069,56.32,-73.17,0
1451810.0,-0.247,-0.359,0.108,-53.09,66.51,0
1451815.0,0.31,0.462,0.23,50.11,-53.5,0
1451820.0,-0.319,-0.362,-0.287,-40.09,132.0,0
1451825.0,0.334,0.282,0.033,40.04,-84.3,0
1451830.0,-0.298,-0.347,0.084,-48.32,74.31,0
1451835.0,0.289,0.443,0.165,53.08,-60.26,0
1451840.0,-0.264,-0.343,-0.328,-39.11,141.16,0
1451845.0,0.112,0.242,-0.106,57.56,-133.38,0
1451850.0,-0.322,-0.321,-0.252,-38.17,128.02,0
1451855.0,0.21,0.381,0.112,57.97,-61.83,0
1451860.0,-0.288,-0.264,-0.141,-39.38,116.14,0
1451865.0,0.253,0.199,0.026,37.99,-84.09,0
1451870.0,-0.353,-0.393,-0.254,-42.1,125.74,0
1451875.0,0.169,0.325,0.074,60.44,-66.35,0
1451880.0,-0.259,-0.28,-0.046,-46.77,99.98,0
1451885.0,0.186,0.313,0.1,56.02,-61.62,0
1451890.0,-0.3,-0.345,-0.271,-40.48,132.05,0
1451895.0,0.179,0.392,-0.086,63.18,-115.79,0
1451900.0,-0.331,-0.419,-0.199,-47.33,120.98,0
1451905.0,0.229,0.318,0.225,44.76,-45.51,0
1451910.0,-0.324,-0.28,-0.079,-40.03,103.73,0
1451915.0,0.207,0.349,0.029,59.07,-82.16,0
1451920.0,-0.281,-0.283,-0.331,-33.09,139.63,0
1451925.0,0.267,0.349,0.129,49.65,-64.21,0
1451930.0,-0.353,-0.443,-0.141,-49.37,111.84,0
1451935.0,0.131,-0.077,-0.005,-30.39,-92.17,0
1451940.0,-0.298,-0.352,-0.323,-38.69,137.36,0
1451945.0,0.145,0.361,0.012,68.05,-85.35,0
1451950.0,-0.255,-0.254,-0.153,-40.5,121.06,0
1451955.0,0.148,0.268,0.158,51.12,-43.07,0
1451960.0,-0.183,-0.228,-0.101,-47.48,118.85,0
1451965.0,0.164,0.084,-0.06,25.55,-110.06,0
1451970.0,-0.401,-0.309,-0.323,-30.97,128.9,0
1451975.0,0.387,0.069,0.349,7.57,-47.92,0
1451980.0,-0.231,-0.232,-0.187,-38.05,129.01,0
1451985.0,0.025,0.223,-0.132,58.89,-169.07,0
1451990.0,-0.324,-0.393,0.309,-41.27,46.39,0
1451995.0,0.066,0.309,0.378,38.8,-9.92,0
1452000.0,-0.202,-0.192,-0.041,-42.93,101.44,0
1452005.0,-0.006,0.23,-0.046,78.67,172.92,0
1452010.0,-0.372,-0.259,0.17,-32.32,65.46,0
1452015.0,0.277,0.143,0.206,22.59,-53.38,0
1452020.0,-0.293,-0.208,-0.079,-34.48,105.12,0
1452025.0,0.061,0.237,0.175,52.0,-19.36,0
1452030.0,-0.087,-0.161,0.069,-55.28,51.49,0
1452035.0,0.21,0.124,-0.23,21.77,-137.63,0
1452040.0,-0.113,-0.201,-0.208,-40.3,151.45,0
1452045.0,0.16,0.256,0.275,38.83,-30.1,0
1452050.0,-0.247,-0.122,0.251,-19.12,44.57,0
1452055.0,0.306,0.225,0.096,35.08,-72.63,0
1452060.0,-0.322,-0.383,-0.062,-49.47,100.98,0
1452065.0,-0.034,0.299,0.258,48.93,7.58,0
1452070.0,-0.168,-0.211,0.175,-40.99,43.97,0
1452075.0,0.318,0.299,0.143,40.64,-65.68,0
1452080.0,-0.171,-0.371,-0.089,-62.59,117.45,0
1452085.0,0.368,0.189,0.014,27.18,-87.79,0
1452090.0,-0.135,-0.134,-0.024,-44.4,100.13,0
1452095.0,0.382,0.337,0.364,32.6,-46.42,0
1452100.0,-0.317,-0.213,0.1,-32.68,72.42,0
1452105.0,0.318,0.108,-0.149,17.06,-115.08,0
1452110.0,-0.329,-0.211,-0.225,-27.88,124.4,0
1452115.0,0.284,0.325,0.263,40.05,-47.18,0
1452120.0,-0.343,-0.261,0.017,-37.23,87.23,0
1452125.0,0.282,0.244,-0.091,39.5,-107.93,0
1452130.0,-0.334,-0.264,-0.038,-38.12,96.58,0
1452135.0,0.389,0.306,0.282,32.49,-54.05,0
1452140.0,-0.315,-0.407,-0.086,-51.3,105.35,0
1452145.0,0.437,0.412,0.196,40.66,-65.84,0
1452150.0,-0.291,-0.335,0.12,-46.86,67.64,0
1452155.0,0.346,0.421,0.062,50.13,-79.83,0
1452160.0,-0.331,-0.419,-0.326,-42.05,134.52,0
1452165.0,0.308,0.361,0.165,45.96,-61.81,0
1452170.0,-0.319,-0.254,0.076,-37.72,76.53,0
1452175.0,0.447,0.359,0.098,38.12,-77.63,0
1452180.0,-0.36,-0.414,-0.199,-45.21,118.92,0
1452185.0,0.409,0.452,0.225,44.13,-61.17,0
1452190.0,-0.269,-0.481,0.026,-60.69,84.44,0
1452195.0,0.334,0.424,0.041,51.52,-83.09,0
1452200.0,-0.348,-0.407,-0.096,-48.44,105.41,0
1452205.0,0.409,0.419,0.268,40.6,-56.74,0
1452210.0,-0.341,-0.393,0.017,-49.02,87.21,0
1452215.0,0.373,0.385,0.139,44.1,-69.58,0
1452220.0,-0.362,-0.376,-0.122,-44.51,108.64,0
1452225.0,0.48,0.395,0.127,38.48,-75.22,0
1452230.0,-0.236,-0.371,-0.019,-57.52,94.69,0
1452235.0,0.44,0.44,0.172,43.0,-68.61,0
1452240.0,-0.298,-0.46,-0.139,-54.45,115.03,0
1452245.0,0.337,0.357,0.151,44.03,-65.89,0
1452250.0,-0.439,-0.398,0.009,-42.16,88.77,0
1452255.0,0.267,0.419,0.129,54.67,-64.21,0
1452260.0,-0.465,-0.343,-0.24,-33.2,117.24,0
1452265.0,0.377,0.385,0.132,43.95,-70.79,0
1452270.0,-0.295,-0.386,0.005,-52.55,89.1,0
1452275.0,0.365,0.443,0.093,49.58,-75.69,0
1452280.0,-0.343,-0.436,-0.259,-45.4,127.01,0
1452285.0,0.454,0.486,-0.012,46.93,-91.53,0
1452290.0,-0.365,-0.455,-0.201,-47.52,118.89,0
1452295.0,0.339,0.349,0.081,45.06,-76.53,0
1452300.0,-0.374,-0.402,-0.012,-47.05,91.86,0
1452305.0,0.279,0.448,0.141,55.04,-63.19,0
1452310.0,-0.338,-0.402,-0.18,-46.4,117.97,0
1452315.0,0.282,0.457,0.187,53.53,-56.48,0
1452320.0,-0.35,-0.431,-0.132,-49.03,110.62,0
1452325.0,0.291,0.39,-0.141,50.31,-115.9,0
1452330.0,-0.444,-0.402,-0.465,-32.06,136.31,0
1452335.0,0.368,0.448,0.115,49.27,-72.67,0
1452340.0,-0.305,-0.484,0.155,-54.72,62.99,0
1452345.0,0.296,0.371,0.017,51.37,-86.79,0
1452350.0,-0.365,-0.287,-0.216,-34.15,120.59,0
1452355.0,0.358,0.357,0.383,34.22,-43.09,0
1452360.0,-0.305,-0.347,0.029,-48.59,84.65,0
1452365.0,0.291,0.359,0.005,50.95,-89.09,0
1452370.0,-0.36,-0.381,-0.149,-44.36,112.43,0
1452375.0,0.284,0.39,0.088,52.67,-72.71,0
1452380.0,-0.35,-0.357,-0.371,-34.96,136.65,0
1452385.0,0.308,0.335,-0.067,46.74,-102.31,0
1452390.0,-0.379,-0.335,0.007,-41.49,88.94,0
1452395.0,0.224,0.428,0.122,59.22,-61.46,0
1452400.0,-0.348,-0.41,-0.347,-39.79,134.94,0
1452405.0,0.119,0.311,-0.07,66.12,-120.35,0
1452410.0,-0.358,-0.268,-0.06,-36.5,99.53,0
1452415.0,0.277,0.361,0.098,50.9,-70.51,0
1452420.0,-0.425,-0.335,-0.386,-30.31,132.24,0
1452425.0,0.353,0.256,0.05,35.65,-81.93,0
1452430.0,-0.346,-0.302,-0.003,-41.13,90.42,0
1452435.0,0.248,0.438,0.163,55.89,-56.75,0
1452440.0,-0.372,-0.366,-0.287,-37.94,127.7,0
1452445.0,0.176,0.294,-0.086,56.3,-116.1,0
1452450.0,-0.31,-0.364,-0.18,-45.47,120.13,0
1452455.0,0.066,0.313,0.041,76.1,-58.5,0
1452460.0,-0.331,-0.244,-0.261,-30.08,128.25,0
1452465.0,0.181,0.347,-0.06,61.2,-108.34,0
1452470.0,-0.312,-0.355,-0.182,-44.45,120.26,0
1452475.0,0.169,0.361,0.053,63.89,-72.75,0
1452480.0,-0.341,-0.225,-0.225,-28.87,123.45,0
1452485.0,0.205,0.234,-0.031,48.51,-98.68,0
1452490.0,-0.422,-0.314,-0.273,-31.96,122.89,0
1452495.0,0.09,0.234,0.024,68.33,-75.21,0
1452500.0,-0.166,-0.189,-0.072,-46.28,113.43,0
1452505.0,0.217,0.39,0.218,51.76,-44.91,0
1452510.0,-0.336,-0.402,-0.242,-44.18,125.75,0
1452515.0,0.174,0.349,0.012,63.49,-86.11,0
1452520.0,-0.2,-0.4,-0.173,-56.59,130.84,0
1452525.0,0.114,0.328,-0.012,70.72,-96.07,0
1452530.0,-0.236,-0.247,-0.283,-33.85,140.2,0
1452535.0,0.181,-0.086,0.091,-23.09,-63.36,0
1452540.0,-0.255,-0.271,-0.137,-43.13,118.21,0
1452545.0,0.136,0.256,0.11,55.71,-50.96,0
1452550.0,-0.252,-0.206,-0.153,-34.91,121.3,0
1452555.0,0.064,0.285,-0.05,74.06,-128.34,0
1452560.0,-0.192,-0.225,-0.271,-34.14,144.6,0
1452565.0,0.09,0.062,0.021,33.84,-76.65,0
1452570.0,-0.293,-0.302,-0.374,-32.44,141.9,0
1452575.0,0.313,0.117,0.043,20.36,-82.18,0
1452580.0,-0.149,-0.22,-0.084,-52.15,119.35,0
1452585.0,0.126,0.366,0.076,68.07,-58.75,0
1452590.0,-0.281,-0.417,0.096,-54.54,71.21,0
1452595.0,0.112,0.354,0.244,52.85,-24.58,0
1452600.0,-0.331,-0.264,0.024,-38.43,85.89,0
1452605.0,0.131,0.143,0.081,42.98,-58.16,0
1452610.0,-0.224,-0.309,0.062,-53.1,74.48,0
1452615.0,0.334,0.155,-0.036,24.81,-96.16,0
1452620.0,-0.063,-0.237,-0.127,-59.11,153.58,0
1452625.0,0.114,0.234,0.189,46.73,-31.11,0
1452630.0,-0.219,-0.252,0.17,-42.25,52.18,0
1452635.0,0.016,0.27,0.108,68.09,-8.4,0
1452640.0,-0.291,-0.244,-0.036,-39.85,97.08,0
1452645.0,-0.13,0.254,0.436,29.16,16.64,0
1452650.0,-0.3,-0.287,0.313,-33.52,43.76,0
1452655.0,0.444,0.225,0.167,25.34,-69.36,0
1452660.0,-0.238,-0.252,-0.091,-44.64,110.96,0
1452665.0,-0.042,0.354,0.232,56.35,10.16,0
1452670.0,-0.192,-0.311,0.194,-48.75,44.8,0
1452675.0,0.454,0.381,0.302,34.92,-56.41,0
1452680.0,-0.221,-0.343,-0.058,-56.29,104.6,0
1452685.0,0.365,0.392,-0.038,46.89,-96.01,0
1452690.0,-0.334,-0.417,-0.086,-50.41,104.51,0
1452695.0,0.306,0.292,0.251,36.43,-50.57,0
1452700.0,-0.336,-0.419,-0.146,-48.83,113.51,0
1452705.0,0.284,0.376,-0.036,52.69,-97.24,0
1452710.0,-0.228,-0.254,0.172,-41.6,52.97,0
1452715.0,0.423,0.337,0.407,29.9,-46.11,0
1452720.0,-0.298,-0.438,-0.287,-46.64,133.99,0
1452725.0,0.349,0.328,-0.026,43.15,-94.35,0
1452730.0,-0.188,-0.268,0.251,-40.55,36.75,0
1452735.0,0.504,0.359,0.426,28.54,-49.81,0
1452740.0,-0.346,-0.467,-0.146,-51.22,112.93,0
1452745.0,0.365,0.426,0.021,49.33,-86.65,0
1452750.0,-0.269,-0.319,0.091,-48.29,71.35,0
1452755.0,0.191,0.364,0.079,60.44,-67.53,0
1452760.0,-0.358,-0.412,-0.24,-43.74,123.82,0
1452765.0,0.356,0.258,0.12,34.54,-71.43,0
1452770.0,-0.252,-0.242,-0.053,-43.19,101.83,0
1452775.0,0.432,0.371,0.074,40.21,-80.28,0
1452780.0,-0.255,-0.505,-0.024,-63.15,95.41,0
1452785.0,0.368,0.388,0.256,40.86,-55.16,0
1452790.0,-0.326,-0.292,-0.094,-40.71,105.99,0
1452795.0,0.346,0.481,0.005,54.25,-89.23,0
1452800.0,-0.506,-0.503,-0.165,-43.37,108.1,0
1452805.0,0.227,0.378,0.124,55.65,-61.24,0
1452810.0,-0.499,-0.333,-0.28,-30.19,119.33,0
1452815.0,0.277,0.436,-0.012,57.54,-92.51,0
1452820.0,-0.324,-0.41,-0.012,-51.63,92.14,0
1452825.0,0.375,0.309,0.165,37.0,-66.25,0
1452830.0,-0.137,-0.35,-0.094,-64.58,124.26,0
1452835.0,0.332,0.39,0.043,49.37,-82.63,0
1452840.0,-0.379,-0.436,-0.122,-47.57,107.87,0
1452845.0,0.353,0.333,0.108,42.0,-73.07,0
1452850.0,-0.365,-0.29,-0.022,-38.42,93.41,0
1452855.0,0.38,0.483,0.232,47.37,-58.57,0
1452860.0,-0.432,-0.429,-0.134,-43.47,107.27,0
1452865.0,0.387,0.311,0.134,37.22,-70.91,0
1452870.0,-0.343,-0.398,-0.079,-48.46,102.99,0
1452875.0,0.373,0.438,0.088,48.83,-76.65,0
1452880.0,-0.279,-0.429,-0.113,-54.97,112.02,0
1452885.0,0.368,0.342,0.191,39.53,-62.51,0
1452890.0,-0.298,-0.369,0.067,-50.4,77.34,0
1452895.0,0.33,0.448,0.148,51.08,-65.77,0
1452900.0,-0.288,-0.386,-0.309,-42.38,137.0,0
1452905.0,0.294,0.349,-0.038,49.72,-97.46,0
1452910.0,-0.303,-0.448,0.019,-55.91,86.41,0
1452915.0,0.327,0.364,0.064,47.49,-78.85,0
1452920.0,-0.36,-0.398,-0.304,-40.15,130.2,0
1452925.0,0.358,0.347,0.088,43.24,-76.14,0
1452930.0,-0.451,-0.357,0.038,-38.26,85.17,0
1452935.0,0.349,0.335,0.196,39.94,-60.64,0
1452940.0,-0.401,-0.335,-0.218,-36.32,118.55,0
1452945.0,0.174,0.325,-0.098,58.46,-119.48,0
1452950.0,-0.319,-0.338,-0.139,-44.12,113.53,0
1452955.0,0.262,0.335,0.143,48.24,-61.34,0
1452960.0,-0.401,-0.362,-0.17,-39.72,113.01,0
1452965.0,0.296,0.337,0.019,48.68,-86.33,0
1452970.0,-0.422,-0.273,-0.24,-29.36,119.57,0
1452975.0,0.318,0.34,0.132,44.67,-67.5,0
1452980.0,-0.329,-0.364,-0.094,-46.8,105.88,0
1452985.0,0.234,0.337,-0.038,54.93,-99.35,0
1452990.0,-0.384,-0.338,-0.41,-31.03,136.85,0
1452995.0,0.186,0.335,0.041,60.41,-77.7,0
1453000.0,-0.303,-0.378,0.009,-51.35,88.22,0
1453005.0,0.143,0.369,-0.01,68.78,-93.9,0
1453010.0,-0.36,-0.304,-0.369,-30.55,135.7,0
1453015.0,0.169,0.297,0.067,58.5,-68.42,0
1453020.0,-0.338,-0.333,-0.216,-39.68,122.5,0
1453025.0,0.157,0.218,-0.067,51.87,-113.15,0
1453030.0,-0.353,-0.182,-0.17,-24.94,115.75,0
1453035.0,0.203,0.371,0.136,56.64,-56.07,0
1453040.0,-0.437,-0.431,-0.388,-36.43,131.63,0
1453045.0,0.09,0.206,-0.091,58.08,-135.33,0
1453050.0,-0.362,-0.268,-0.0,-36.51,90.03,0
1453055.0,0.203,0.467,0.096,64.36,-64.74,0
1453060.0,-0.334,-0.443,-0.417,-39.69,141.32,0
1453065.0,0.107,0.287,0.029,68.93,-75.03,0
1453070.0,-0.238,-0.299,0.072,-50.31,73.24,0
1453075.0,0.145,0.378,-0.019,68.83,-97.58,0
1453080.0,-0.386,-0.216,-0.623,-16.4,148.18,0
1453085.0,0.21,0.143,-0.01,34.34,-92.66,0
1453090.0,-0.243,-0.28,0.041,-48.72,80.52,0
1453095.0,0.234,0.242,-0.151,40.97,-122.86,0
1453100.0,-0.295,-0.24,-0.357,-27.35,140.39,0
1453105.0,0.193,0.297,0.179,48.39,-47.1,0
1453110.0,-0.224,-0.323,0.026,-55.16,83.32,0
1453115.0,0.052,0.249,-0.012,77.93,-103.18,0
1453120.0,-0.36,-0.17,-0.364,-18.38,135.32,0
1453125.0,0.2,0.208,0.093,43.3,-65.04,0
1453130.0,-0.36,-0.35,-0.307,-36.48,130.42,0
1453135.0,-0.068,0.088,0.177,25.0,20.99,0
1453140.0,-0.135,-0.206,-0.211,-39.46,147.38,0
1453145.0,-0.015,0.349,0.014,86.59,47.02,0
1453150.0,-0.271,-0.319,-0.376,-34.49,144.18,0
1453155.0,0.052,0.206,-0.034,73.29,-123.03,0
1453160.0,-0.269,-0.22,-0.055,-38.75,101.6,0
1453165.0,0.114,0.239,-0.096,58.08,-130.07,0
1453170.0,-0.338,-0.249,-0.445,-24.01,142.77,0
1453175.0,0.32,0.175,0.33,20.79,-44.09,0
1453180.0,-0.159,-0.299,-0.005,-62.04,91.78,0
1453185.0,0.042,0.249,-0.079,70.17,-151.93,0
1453190.0,-0.315,-0.309,-0.058,-44.02,100.38,0
1453195.0,0.131,0.297,0.227,48.53,-29.92,0
1453200.0,-0.128,-0.259,0.098,-58.1,52.51,0
1453205.0,0.179,0.266,0.124,50.66,-55.17,0
1453210.0,-0.195,-0.252,-0.156,-45.24,128.65,0
1453215.0,0.31,0.297,0.026,43.61,-85.18,0
1453220.0,-0.18,-0.316,0.153,-53.19,49.69,0
1453225.0,-0.113,0.227,0.385,29.51,16.4,0
1453230.0,-0.216,-0.316,0.048,-54.98,77.56,0
1453235.0,0.009,0.328,-0.062,79.12,-172.07,0
1453240.0,-0.195,-0.376,0.002,-62.61,89.34,0
1453245.0,0.145,0.29,0.318,39.61,-24.52,0
1453250.0,-0.159,-0.132,0.014,-39.57,84.89,0
1453255.0,0.361,0.246,-0.077,33.76,-102.02,0
1453260.0,-0.145,-0.297,-0.11,-58.53,127.35,0
1453265.0,-0.003,0.196,0.211,42.97,0.89,0
1453270.0,-0.173,-0.247,-0.01,-54.88,93.22,0
1453275.0,-0.022,0.342,0.096,73.99,13.2,0
1453280.0,-0.279,-0.407,0.105,-53.82,69.32,0
1453285.0,0.392,0.352,0.218,38.13,-60.94,0
1453290.0,-0.236,-0.323,-0.144,-49.52,121.41,0
1453295.0,0.409,0.44,0.06,46.85,-81.69,0
1453300.0,-0.305,-0.362,0.108,-48.2,70.57,0
1453305.0,0.409,0.313,0.302,31.69,-53.57,0
1453310.0,-0.286,-0.35,-0.168,-46.54,120.41,0
1453315.0,0.294,0.225,-0.019,37.39,-93.76,0
1453320.0,-0.31,-0.292,0.132,-40.97,66.99,0
1453325.0,0.363,0.452,0.278,44.71,-52.6,0
1453330.0,-0.295,-0.326,-0.273,-39.0,132.76,0
1453335.0,0.308,0.421,-0.211,48.46,-124.4,0
1453340.0,-0.415,-0.362,-0.06,-40.77,98.23,0
1453345.0,0.428,0.268,0.318,26.69,-53.34,0
1453350.0,-0.334,-0.302,-0.139,-39.86,112.62,0
1453355.0,0.231,0.373,0.002,58.21,-89.45,0
1453360.0,-0.281,-0.39,0.091,-52.9,72.09,0
1453365.0,0.459,0.412,0.347,35.59,-52.9,0
1453370.0,-0.315,-0.513,-0.146,-55.91,114.93,0
1453375.0,0.423,0.512,-0.007,50.45,-90.99,0
1453380.0,-0.207,-0.481,0.019,-66.67,84.75,0
1453385.0,0.509,0.594,0.278,45.67,-61.4,0
1453390.0,-0.226,-0.331,-0.132,-51.64,120.27,0
1453395.0,0.37,0.364,0.017,44.47,-87.43,0
1453400.0,-0.391,-0.465,-0.082,-49.31,101.78,0
1453405.0,0.183,0.318,0.031,59.69,-80.42,0
1453410.0,-0.525,-0.268,-0.185,-25.73,109.36,0
1453415.0,0.222,0.433,0.036,62.59,-80.84,0
1453420.0,-0.463,-0.407,-0.23,-38.23,116.42,0
1453425.0,0.301,0.364,-0.053,49.98,-99.96,0
1453430.0,-0.348,-0.34,-0.149,-41.95,113.12,0
1453435.0,0.346,0.39,0.148,46.0,-66.82,0
1453440.0,-0.334,-0.39,-0.115,-47.88,109.03,0
1453445.0,0.33,0.395,0.084,49.27,-75.76,0
1453450.0,-0.338,-0.414,-0.141,-48.48,112.68,0
1453455.0,0.327,0.426,0.132,50.39,-68.1,0
1453460.0,-0.286,-0.326,-0.026,-48.62,95.3,0
1453465.0,0.234,0.371,-0.036,57.48,-98.77,0
1453470.0,-0.422,-0.4,-0.278,-38.35,123.35,0
1453475.0,0.284,0.369,0.045,52.03,-80.93,0
1453480.0,-0.396,-0.429,0.012,-47.27,88.29,0
1453485.0,0.296,0.486,0.175,54.73,-59.46,0
1453490.0,-0.382,-0.405,-0.22,-42.57,120.02,0
1453495.0,0.394,0.436,0.072,47.39,-79.7,0
1453500.0,-0.307,-0.517,-0.141,-56.82,114.71,0
1453505.0,0.205,0.354,0.06,58.91,-73.77,0
1453510.0,-0.25,-0.249,-0.185,-38.73,126.44,0
1453515.0,0.387,0.392,0.163,43.08,-67.2,0
1453520.0,-0.382,-0.359,-0.208,-39.57,118.65,0
1453525.0,0.234,0.297,-0.0,51.77,-90.04,0
1453530.0,-0.437,-0.474,-0.089,-46.78,101.49,0
1453535.0,0.126,0.507,0.146,69.2,-40.82,0
1453540.0,-0.427,-0.434,-0.431,-35.54,135.27,0
1453545.0,0.136,0.249,-0.144,51.54,-136.69,0
1453550.0,-0.231,-0.223,0.002,-44.0,89.45,0
1453555.0,0.337,0.419,0.151,48.63,-65.89,0
1453560.0,-0.255,-0.335,-0.254,-43.0,134.92,0
1453565.0,0.31,0.127,0.057,21.88,-79.54,0
1453570.0,-0.319,-0.386,-0.089,-49.32,105.53,0
1453575.0,0.2,0.426,0.134,60.51,-56.23,0
1453580.0,-0.389,-0.189,-0.003,-25.96,90.38,0
1453585.0,0.203,0.191,0.136,38.08,-56.07,0
1453590.0,-0.326,-0.417,-0.319,-42.41,134.3,0
1453595.0,0.181,0.34,0.009,61.92,-87.02,0
1453600.0,-0.274,-0.211,-0.026,-37.47,95.53,0
1453605.0,0.191,0.381,0.036,62.99,-79.38,0
1453610.0,-0.334,-0.455,-0.522,-36.29,147.42,0
1453615.0,0.157,0.294,-0.144,54.11,-132.46,0
1453620.0,-0.384,-0.254,-0.182,-30.86,115.38,0
1453625.0,0.09,0.306,0.172,57.6,-27.62,0
1453630.0,-0.384,-0.326,-0.254,-35.29,123.48,0
1453635.0,0.054,0.249,-0.079,68.92,-145.61,0
1453640.0,-0.36,-0.326,-0.237,-37.08,123.38,0
1453645.0,0.121,0.421,-0.012,73.87,-95.71,0
1453650.0,-0.291,-0.366,-0.28,-42.23,133.97,0
1453655.0,0.025,0.316,-0.096,72.56,-165.14,0
1453660.0,-0.247,-0.369,-0.285,-44.34,139.04,0
1453665.0,0.164,0.206,-0.055,49.88,-108.58,0
1453670.0,-0.336,-0.192,-0.177,-26.77,117.82,0
1453675.0,0.164,0.304,0.086,58.6,-62.37,0
1453680.0,-0.247,-0.283,-0.117,-45.9,115.39,0
1453685.0,0.061,0.124,0.026,61.78,-66.9,0
1453690.0,-0.315,-0.208,-0.232,-28.06,126.46,0
1453695.0,0.138,0.361,0.096,65.08,-55.28,0
1453700.0,-0.257,-0.307,-0.285,-38.62,137.96,0
1453705.0,0.131,0.199,0.014,56.47,-83.8,0
1453710.0,-0.384,-0.369,-0.266,-38.3,124.71,0
1453715.0,0.104,0.33,-0.067,69.39,-122.75,0
1453720.0,-0.362,-0.201,-0.309,-22.91,130.45,0
1453725.0,-0.039,0.263,0.014,81.0,70.07,0
1453730.0,-0.262,-0.244,-0.201,-36.5,127.55,0
1453735.0,-0.032,0.232,0.256,41.97,7.13,0
1453740.0,-0.255,-0.28,-0.304,-35.24,140.07,0
1453745.0,0.124,0.227,-0.098,55.2,-128.5,0
1453750.0,-0.19,-0.299,-0.249,-43.7,142.67,0
1453755.0,0.162,0.302,0.05,60.66,-72.8,0
1453760.0,-0.109,-0.201,-0.108,-52.74,134.81,0
1453765.0,0.006,0.215,-0.024,83.4,-165.34,0
1453770.0,-0.245,-0.295,-0.23,-41.24,133.18,0
1453775.0,-0.032,0.203,0.134,55.9,13.44,0
1453780.0,-0.228,-0.18,-0.156,-33.03,124.31,0
1453785.0,0.061,0.215,-0.108,60.04,-150.37,0
1453790.0,-0.209,-0.347,0.093,-56.6,65.98,0
1453795.0,0.131,0.333,0.093,64.23,-54.53,0
1453800.0,-0.164,-0.278,-0.29,-39.85,150.55,0
1453805.0,0.09,0.335,0.155,61.79,-30.1,0
1453810.0,-0.233,-0.335,0.333,-39.54,35.02,0
1453815.0,-0.022,0.225,0.175,51.95,7.32,0
1453820.0,-0.226,-0.309,-0.05,-53.16,102.58,0
1453825.0,-0.042,0.357,0.203,59.8,11.56,0
1453830.0,-0.238,-0.278,0.12,-46.22,63.32,0
1453835.0,0.023,0.208,0.167,50.92,-7.84,0
1453840.0,-0.113,-0.371,-0.036,-72.23,107.65,0
1453845.0,0.081,0.321,0.084,70.1,-43.91,0
1453850.0,-0.118,-0.304,-0.11,-62.01,133.02,0
1453855.0,-0.003,0.438,0.215,63.82,0.87,0
1453860.0,-0.161,-0.402,0.108,-64.27,56.3,0
1453865.0,0.018,0.369,0.103,74.18,-10.08,0
1453870.0,-0.358,-0.331,-0.106,-41.56,106.44,0
1453875.0,0.016,0.297,0.124,67.1,-7.28,0
1453880.0,-0.022,-0.352,-0.17,-64.01,172.49,0
1453885.0,0.449,0.378,0.117,39.16,-75.38,0
1453890.0,-0.161,-0.23,0.115,-49.28,54.57,0
1453895.0,0.488,0.402,0.199,37.37,-67.84,0
1453900.0,-0.331,-0.52,-0.283,-50.04,130.47,0
1453905.0,0.322,0.244,0.029,37.02,-84.93,0
1453910.0,-0.377,-0.287,-0.072,-36.85,100.82,0
1453915.0,0.322,0.443,0.093,52.84,-73.87,0
1453920.0,-0.453,-0.438,-0.058,-43.8,97.24,0
1453925.0,0.411,0.311,0.328,30.62,-51.42,0
1453930.0,-0.262,-0.271,0.036,-45.69,82.22,0
1453935.0,0.421,0.388,0.086,42.09,-78.44,0
1453940.0,-0.336,-0.436,-0.086,-51.48,104.41,0
1453945.0,0.392,0.373,0.246,38.89,-57.83,0
1453950.0,-0.288,-0.362,-0.125,-49.04,113.39,0
1453955.0,0.389,0.457,0.009,49.57,-88.61,0
1453960.0,-0.319,-0.35,-0.017,-47.56,93.03,0
1453965.0,0.262,0.306,0.053,48.85,-78.69,0
1453970.0,-0.382,-0.357,-0.266,-37.5,124.87,0
1453975.0,0.315,0.419,0.019,52.99,-86.55,0
1453980.0,-0.444,-0.371,-0.062,-39.64,98.0,0
1453985.0,0.289,0.34,0.062,49.0,-77.87,0
1453990.0,-0.298,-0.422,-0.065,-54.14,102.28,0
1453995.0,0.406,0.383,0.328,36.26,-51.09,0
1454000.0,-0.315,-0.429,0.005,-53.73,89.16,0
1454005.0,0.478,0.404,0.127,39.28,-75.15,0
1454010.0,-0.35,-0.335,-0.098,-42.66,105.67,0
1454015.0,0.303,0.409,0.148,50.49,-63.94,0
1454020.0,-0.315,-0.443,-0.187,-50.45,120.72,0
1454025.0,0.253,0.349,0.036,53.83,-81.95,0
1454030.0,-0.252,-0.333,-0.074,-51.69,106.43,0
1454035.0,0.368,0.428,0.086,48.59,-76.84,0
1454040.0,-0.42,-0.481,-0.242,-44.81,119.96,0
1454045.0,0.222,0.321,-0.022,55.2,-95.59,0
1454050.0,-0.425,-0.355,-0.194,-37.21,114.56,0
1454055.0,0.325,0.488,0.057,55.97,-79.99,0
1454060.0,-0.389,-0.438,-0.091,-47.67,103.19,0
1454065.0,0.272,0.304,0.112,45.91,-67.56,0
1454070.0,-0.295,-0.402,-0.101,-52.21,108.83,0
1454075.0,0.282,0.404,0.053,54.69,-79.44,0
1454080.0,-0.348,-0.34,-0.125,-42.62,109.71,0
1454085.0,0.296,0.297,0.175,40.81,-59.46,0
1454090.0,-0.377,-0.297,-0.163,-35.89,113.39,0
1454095.0,0.272,0.318,-0.019,49.4,-94.06,0
1454100.0,-0.36,-0.292,-0.275,-32.81,127.42,0
1454105.0,0.313,0.316,0.115,43.48,-69.85,0
1454110.0,-0.434,-0.364,-0.211,-37.02,115.9,0
1454115.0,0.16,0.357,-0.17,56.81,-136.84,0
1454120.0,-0.379,-0.374,-0.302,-37.63,128.52,0
1454125.0,0.088,0.349,0.062,72.9,-54.7,0
1454130.0,-0.322,-0.343,-0.187,-42.63,120.16,0
1454135.0,0.138,0.371,-0.048,68.5,-109.2,0
1454140.0,-0.338,-0.366,-0.218,-42.31,122.79,0
1454145.0,0.27,0.354,0.141,49.33,-62.38,0
1454150.0,-0.281,-0.359,-0.163,-47.88,120.11,0
1454155.0,0.191,0.342,-0.117,56.8,-121.64,0
1454160.0,-0.403,-0.39,-0.321,-37.15,128.53,0
1454165.0,0.207,0.278,0.105,50.04,-63.11,0
1454170.0,-0.353,-0.216,-0.098,-30.49,105.57,0
1454175.0,0.092,0.378,0.029,75.64,-72.84,0
1454180.0,-0.264,-0.378,-0.115,-52.71,113.53,0
1454185.0,0.131,0.304,0.081,63.13,-58.16,0
1454190.0,-0.348,-0.335,-0.278,-36.98,128.61,0
1454195.0,0.262,0.29,0.021,47.71,-85.34,0
1454200.0,-0.331,-0.211,-0.199,-28.62,120.98,0
1454205.0,0.289,0.333,0.024,48.94,-85.29,0
1454210.0,-0.216,-0.271,-0.24,-39.98,137.92,0
1454215.0,0.081,0.321,-0.003,75.9,-91.82,0
1454220.0,-0.353,-0.479,-0.225,-48.85,122.55,0
1454225.0,0.054,0.342,0.002,80.99,-87.64,0
1454230.0,-0.396,-0.343,-0.292,-34.84,126.43,0
1454235.0,0.193,0.433,0.012,65.94,-86.5,0
1454240.0,-0.24,-0.34,-0.038,-54.42,99.1,0
1454245.0,0.088,0.246,0.12,58.97,-36.27,0
1454250.0,-0.362,-0.362,-0.489,-30.73,143.43,0
1454255.0,0.011,0.313,-0.235,53.14,-177.29,0
1454260.0,-0.358,-0.242,-0.223,-29.87,121.93,0
1454265.0,0.157,0.256,0.143,50.27,-47.6,0
1454270.0,-0.358,-0.402,-0.094,-47.43,104.66,0
1454275.0,0.035,0.299,-0.086,72.7,-157.92,0
1454280.0,-0.276,-0.225,-0.307,-28.62,137.99,0
1454285.0,0.14,0.318,0.084,62.82,-59.21,0
1454290.0,-0.259,-0.28,-0.271,-36.78,136.22,0
1454295.0,0.088,0.141,-0.213,31.46,-157.64,0
1454300.0,-0.2,-0.28,-0.335,-35.69,149.24,0
1454305.0,-0.032,0.266,0.024,81.46,53.38,0
1454310.0,-0.281,-0.24,0.158,-36.62,60.67,0
1454315.0,-0.001,0.309,0.06,79.05,0.84,0
1454320.0,-0.269,-0.275,-0.237,-37.53,131.4,0
1454325.0,0.085,0.275,0.091,65.64,-43.21,0
1454330.0,-0.238,-0.345,-0.053,-54.76,102.52,0
1454335.0,0.174,0.424,0.163,60.66,-46.92,0
1454340.0,-0.099,-0.309,-0.256,-48.35,158.88,0
1454345.0,0.052,0.211,-0.089,63.98,-149.73,0
1454350.0,-0.231,-0.216,0.213,-34.48,47.3,0
1454355.0,0.002,0.354,-0.077,77.77,-178.87,0
1454360.0,-0.2,-0.216,-0.285,-31.78,145.0,0
1454365.0,0.061,0.309,0.041,76.6,-56.55,0
1454370.0,-0.25,-0.323,-0.156,-47.68,121.94,0
1454375.0,0.078,0.175,0.017,65.42,-78.01,0
1454380.0,-0.152,-0.218,-0.256,-36.2,149.38,0
1454385.0,0.047,0.242,-0.005,78.93,-96.01,0
1454390.0,-0.315,-0.364,-0.007,-49.17,91.34,0
1454395.0,0.061,0.261,-0.062,71.45,-135.48,0
1454400.0,-0.08,-0.271,-0.146,-58.39,151.35,0
1454405.0,0.128,0.282,0.143,55.71,-41.82,0
1454410.0,-0.113,-0.273,-0.005,-67.43,92.5,0
1454415.0,0.002,0.275,0.005,88.99,-18.14,0
1454420.0,-0.077,-0.173,-0.082,-56.89,136.47,0
1454425.0,0.052,0.285,0.177,57.07,-16.31,0
1454430.0,-0.326,-0.395,-0.065,-49.89,101.23,0
1454435.0,-0.051,0.261,0.165,56.48,17.22,0
1454440.0,-0.121,-0.35,0.05,-69.52,67.43,0
1454445.0,0.092,0.313,0.088,67.79,-46.29,0
1454450.0,-0.022,-0.355,-0.163,-65.11,172.16,0
1454455.0,0.002,0.323,0.155,64.3,-0.56,0
1454460.0,-0.03,-0.326,-0.017,-84.02,119.75,0
1454465.0,0.035,0.383,0.103,74.17,-18.82,0
1454470.0,-0.259,-0.355,-0.053,-53.24,101.51,0
1454475.0,-0.123,0.383,0.256,53.43,25.66,0
1454480.0,-0.092,-0.388,0.031,-75.97,71.37,0
1454485.0,0.418,0.402,0.222,40.33,-61.98,0
1454490.0,-0.326,-0.465,-0.17,-51.61,117.53,0
1454495.0,0.308,0.392,0.05,51.52,-80.76,0
1454500.0,-0.341,-0.4,-0.086,-48.68,104.22,0
1454505.0,0.308,0.397,0.105,50.68,-71.14,0
1454510.0,-0.307,-0.271,-0.146,-38.5,115.44,0
1454515.0,0.394,0.325,0.117,38.36,-73.45,0
1454520.0,-0.36,-0.419,-0.113,-48.01,107.38,0
1454525.0,0.289,0.285,0.158,40.86,-61.34,0
1454530.0,-0.322,-0.204,-0.11,-30.92,108.92,0
1454535.0,0.387,0.366,0.182,40.58,-64.84,0
1454540.0,-0.319,-0.355,0.002,-47.99,89.6,0
1454545.0,0.432,0.313,0.165,34.11,-69.11,0
1454550.0,-0.31,-0.326,-0.106,-44.87,108.81,0
1454555.0,0.43,0.46,0.167,44.88,-68.73,0
1454560.0,-0.37,-0.524,-0.144,-52.91,111.26,0
1454565.0,0.358,0.407,0.088,47.79,-76.14,0
1454570.0,-0.255,-0.381,-0.05,-55.72,101.2,0
1454575.0,0.346,0.428,0.215,46.41,-58.13,0
1454580.0,-0.415,-0.424,-0.173,-43.32,112.57,0
1454585.0,0.274,0.433,0.024,57.55,-85.05,0
1454590.0,-0.274,-0.333,-0.0,-50.57,90.03,0
1454595.0,0.272,0.352,0.129,49.43,-64.61,0
1454600.0,-0.391,-0.455,-0.287,-43.15,126.31,0
1454605.0,0.385,0.34,0.112,40.3,-73.71,0
1454610.0,-0.374,-0.252,-0.036,-33.78,95.5,0
1454615.0,0.356,0.412,0.093,48.21,-75.32,0
1454620.0,-0.379,-0.412,-0.165,-44.88,113.56,0
1454625.0,0.088,0.385,-0.036,76.17,-112.36,0
1454630.0,-0.329,-0.402,-0.206,-46.03,122.07,0
1454635.0,0.188,0.364,0.038,62.16,-78.55,0
1454640.0,-0.458,-0.285,-0.122,-31.01,104.94,0
1454645.0,0.358,0.256,0.062,35.15,-80.17,0
1454650.0,-0.3,-0.343,-0.175,-44.59,120.23,0
1454655.0,0.262,0.313,-0.01,50.04,-92.12,0
1454660.0,-0.31,-0.347,-0.235,-41.78,127.16,0
1454665.0,0.267,0.273,0.033,45.36,-82.89,0
1454670.0,-0.286,-0.216,-0.019,-36.97,93.87,0
1454675.0,0.26,0.316,0.158,46.07,-58.75,0
1454680.0,-0.25,-0.244,-0.24,-35.22,133.8,0
1454685.0,0.265,0.177,0.127,31.08,-64.43,0
1454690.0,-0.456,-0.352,-0.036,-37.6,94.53,0
1454695.0,0.14,0.385,0.005,69.97,-88.11,0
1454700.0,-0.336,-0.364,-0.268,-40.25,128.6,0
1454705.0,0.148,0.402,0.005,69.84,-88.2,0
1454710.0,-0.329,-0.283,-0.228,-35.25,124.69,0
1454715.0,0.251,0.335,-0.003,53.21,-90.58,0
1454720.0,-0.137,-0.366,-0.127,-62.95,132.77,0
1454725.0,0.167,0.244,0.026,55.34,-81.08,0
1454730.0,-0.377,-0.429,-0.261,-43.08,124.72,0
1454735.0,0.164,0.428,0.026,68.77,-80.95,0
1454740.0,-0.372,-0.366,-0.168,-41.93,114.27,0
1454745.0,0.092,0.256,-0.05,67.63,-118.6,0
1454750.0,-0.449,-0.328,-0.338,-30.3,126.98,0
1454755.0,0.234,0.342,0.088,53.86,-69.28,0
1454760.0,-0.348,-0.307,-0.201,-37.33,120.04,0
1454765.0,0.121,0.318,-0.036,68.33,-106.57,0
1454770.0,-0.293,-0.398,-0.275,-44.67,133.24,0
1454775.0,0.042,0.311,-0.003,82.26,-93.46,0
1454780.0,-0.334,-0.259,-0.28,-30.7,130.03,0
1454785.0,0.195,0.371,0.067,60.89,-71.11,0
1454790.0,-0.298,-0.378,-0.074,-50.96,104.03,0
1454795.0,0.188,0.27,0.036,54.67,-79.25,0
1454800.0,-0.161,-0.355,-0.139,-59.01,130.76,0
1454805.0,0.133,0.278,0.088,60.06,-56.42,0
1454810.0,-0.245,-0.309,-0.213,-43.57,131.03,0
1454815.0,0.169,0.246,0.017,55.41,-84.39,0
1454820.0,-0.305,-0.316,-0.199,-40.97,123.11,0
1454825.0,0.15,0.39,-0.003,68.97,-90.98,0
1454830.0,-0.288,-0.393,-0.278,-44.46,133.96,0
1454835.0,0.109,0.323,0.038,70.29,-70.75,0
1454840.0,-0.355,-0.412,-0.295,-41.75,129.67,0
1454845.0,0.037,0.373,-0.07,78.05,-151.73,0
1454850.0,-0.233,-0.307,-0.17,-46.73,126.13,0
1454855.0,-0.006,0.313,0.005,88.66,50.76,0
1454860.0,-0.212,-0.261,-0.182,-43.09,130.72,0
1454865.0,0.049,0.163,-0.048,67.04,-134.2,0
1454870.0,-0.384,-0.24,-0.424,-22.73,137.83,0
1454875.0,0.164,0.239,-0.01,55.47,-93.39,0
1454880.0,-0.176,-0.127,-0.031,-35.45,100.1,0
1454885.0,0.133,0.184,0.165,40.97,-38.91,0
1454890.0,-0.303,-0.319,-0.374,-33.53,141.0,0
1454895.0,0.002,0.258,-0.199,52.42,-179.56,0
1454900.0,-0.262,-0.204,-0.17,-33.11,123.02,0
1454905.0,0.076,0.316,0.132,64.34,-29.94,0
1454910.0,-0.24,-0.283,-0.151,-44.89,122.14,0
1454915.0,0.049,0.136,-0.06,60.31,-140.54,0
1454920.0,-0.104,-0.254,-0.048,-65.75,114.83,0
1454925.0,0.057,0.275,0.127,63.23,-24.06,0
1454930.0,-0.219,-0.285,-0.295,-37.84,143.41,0
1454935.0,0.066,0.316,-0.031,76.96,-115.31,0
1454940.0,-0.264,-0.364,-0.177,-48.84,123.87,0
1454945.0,0.095,0.294,-0.01,72.04,-95.86,0
1454950.0,-0.279,-0.156,0.091,-28.0,71.95,0
1454955.0,-0.008,0.294,0.009,87.59,40.56,0
1454960.0,-0.183,-0.283,-0.259,-41.74,144.75,0
1454965.0,0.013,0.132,-0.0,84.14,-90.68,0
1454970.0,-0.106,-0.383,-0.046,-73.21,113.26,0
1454975.0,0.016,0.328,0.146,65.89,-6.21,0
1454980.0,-0.142,-0.137,-0.259,-24.84,151.22,0
1454985.0,0.1,0.278,-0.072,66.11,-125.84,0
1454990.0,-0.188,-0.314,0.098,-56.0,62.42,0
1454995.0,0.102,0.302,0.158,58.06,-32.89,0
1455000.0,-0.178,-0.271,-0.194,-45.78,137.47,0
1455005.0,-0.03,0.366,0.273,53.15,6.19,0
1455010.0,-0.063,-0.295,0.136,-62.99,24.85,0
1455015.0,-0.161,0.165,0.098,41.17,58.72,0
1455020.0,-0.13,-0.256,-0.034,-62.32,104.51,0
1455025.0,-0.001,0.285,0.239,49.96,0.21,0
1455030.0,-0.326,-0.41,0.014,-51.41,87.51,0
1455035.0,0.049,0.292,0.021,79.55,-66.59,0
1455040.0,-0.082,-0.323,-0.134,-64.04,148.49,0
1455045.0,0.002,0.373,0.28,53.13,-0.31,0
1455050.0,-0.2,-0.369,0.053,-60.77,75.26,0
1455055.0,0.04,0.311,0.117,68.31,-18.77,0
1455060.0,-0.154,-0.326,0.009,-64.64,86.5,0
1455065.0,-0.03,0.318,0.237,53.13,7.13,0
1455070.0,-0.372,-0.304,-0.237,-34.59,122.52,0
1455075.0,-0.034,0.325,0.053,79.08,33.23,0
1455080.0,-0.094,-0.393,0.057,-74.31,58.7,0
1455085.0,0.346,0.321,0.148,40.41,-66.82,0
1455090.0,-0.233,-0.311,-0.175,-46.9,126.89,0
1455095.0,0.444,0.392,0.122,40.42,-74.66,0
1455100.0,-0.291,-0.441,-0.091,-55.35,107.41,0
1455105.0,0.5,0.392,0.067,37.91,-82.37,0
1455110.0,-0.298,-0.434,-0.0,-55.52,90.03,0
1455115.0,0.358,0.486,0.309,45.77,-49.25,0
1455120.0,-0.322,-0.493,0.029,-56.79,84.92,0
1455125.0,0.341,0.448,0.17,49.56,-63.56,0
1455130.0,-0.358,-0.419,-0.101,-48.45,105.73,0
1455135.0,0.37,0.388,0.153,44.06,-67.54,0
1455140.0,-0.391,-0.41,-0.108,-45.27,105.42,0
1455145.0,0.406,0.306,0.05,36.81,-82.97,0
1455150.0,-0.279,-0.304,-0.062,-46.82,102.63,0
1455155.0,0.363,0.503,0.285,47.45,-51.89,0
1455160.0,-0.216,-0.374,-0.096,-57.65,113.91,0
1455165.0,0.286,0.342,-0.024,49.97,-94.81,0
1455170.0,-0.341,-0.431,-0.096,-50.6,105.72,0
1455175.0,0.267,0.407,0.069,55.84,-75.47,0
1455180.0,-0.379,-0.347,-0.247,-37.52,123.06,0
1455185.0,0.334,0.321,0.021,43.75,-86.34,0
1455190.0,-0.348,-0.328,-0.134,-41.34,111.09,0
1455195.0,0.198,0.282,0.057,53.89,-73.85,0
1455200.0,-0.353,-0.333,-0.079,-42.64,102.65,0
1455205.0,0.301,0.395,0.036,52.51,-83.22,0
1455210.0,-0.398,-0.366,-0.271,-37.27,124.2,0
1455215.0,0.351,0.431,0.127,49.09,-70.15,0
1455220.0,-0.389,-0.448,-0.077,-48.5,101.17,0
1455225.0,0.2,0.302,0.019,56.29,-84.58,0
1455230.0,-0.35,-0.328,-0.208,-38.83,120.75,0
1455235.0,0.164,0.373,0.074,64.23,-65.74,0
1455240.0,-0.255,-0.316,-0.134,-47.68,117.79,0
1455245.0,0.222,0.234,0.064,45.43,-73.79,0
1455250.0,-0.36,-0.268,-0.18,-33.7,116.53,0
1455255.0,0.344,0.359,0.139,44.07,-68.03,0
1455260.0,-0.322,-0.355,-0.103,-46.38,107.77,0
1455265.0,0.255,0.361,-0.074,53.65,-106.24,0
1455270.0,-0.338,-0.429,-0.22,-46.71,123.07,0
1455275.0,0.227,0.452,0.141,59.46,-58.09,0
1455280.0,-0.346,-0.431,-0.137,-49.24,111.57,0
1455285.0,0.203,0.292,0.057,54.2,-74.21,0
1455290.0,-0.343,-0.297,-0.134,-38.87,111.36,0
1455295.0,0.265,0.395,0.108,54.1,-67.9,0
1455300.0,-0.267,-0.295,-0.194,-41.78,126.05,0
1455305.0,0.188,0.306,-0.01,58.39,-92.96,0
1455310.0,-0.377,-0.422,-0.242,-43.27,122.71,0
1455315.0,0.169,0.397,-0.101,63.64,-120.78,0
1455320.0,-0.382,-0.41,-0.285,-40.69,126.76,0
1455325.0,0.155,0.316,-0.007,63.87,-92.72,0
1455330.0,-0.377,-0.393,-0.211,-42.3,119.23,0
1455335.0,0.121,0.304,0.055,66.35,-65.63,0
1455340.0,-0.281,-0.249,-0.129,-38.85,114.73,0
1455345.0,0.131,0.251,0.072,59.3,-61.28,0
1455350.0,-0.35,-0.352,-0.292,-37.66,129.83,0
1455355.0,0.217,0.316,0.031,55.24,-81.88,0
1455360.0,-0.197,-0.278,-0.158,-47.71,128.73,0
1455365.0,0.179,0.256,0.057,53.76,-72.22,0
1455370.0,-0.295,-0.326,-0.335,-36.09,138.63,0
1455375.0,0.179,0.297,0.064,57.37,-70.16,0
1455380.0,-0.262,-0.273,-0.11,-43.87,112.84,0
1455385.0,0.021,0.153,0.021,79.0,-44.02,0
1455390.0,-0.329,-0.314,-0.273,-36.28,129.71,0
1455395.0,0.092,0.313,-0.005,73.54,-93.06,0
1455400.0,-0.226,-0.266,-0.139,-45.07,121.61,0
1455405.0,0.164,0.345,0.108,60.32,-56.79,0
1455410.0,-0.25,-0.302,-0.218,-42.31,131.11,0
1455415.0,0.241,0.361,0.069,55.25,-73.96,0
1455420.0,-0.135,-0.283,-0.101,-59.22,126.73,0
1455425.0,0.047,0.155,-0.053,65.54,-138.34,0
1455430.0,-0.336,-0.304,-0.362,-31.64,137.1,0
1455435.0,0.128,0.364,0.048,69.36,-69.61,0
1455440.0,-0.204,-0.18,-0.139,-36.02,124.22,0
1455445.0,-0.077,0.1,-0.194,25.66,158.24,0
1455450.0,-0.281,-0.24,-0.302,-30.15,137.05,0
1455455.0,0.018,0.256,0.103,67.81,-10.08,0
1455460.0,-0.257,-0.189,-0.22,-29.21,130.61,0
1455465.0,0.069,0.28,-0.141,60.69,-154.14,0
1455470.0,-0.255,-0.374,-0.302,-43.42,139.84,0
1455475.0,0.215,0.223,0.187,38.04,-48.99,0
1455480.0,-0.233,-0.268,-0.175,-42.63,126.89,0
1455485.0,0.167,0.34,-0.022,63.68,-97.42,0
1455490.0,-0.178,-0.314,-0.17,-51.87,133.7,0
1455495.0,-0.085,0.239,0.096,61.91,41.53,0
1455500.0,-0.219,-0.28,-0.201,-43.32,132.62,0
1455505.0,-0.058,0.179,-0.077,61.74,142.77,0
1455510.0,-0.348,-0.12,0.019,-18.98,86.88,0
1455515.0,0.047,0.254,-0.058,73.66,-140.79,0
1455520.0,-0.025,-0.285,-0.12,-66.76,168.3,0
1455525.0,0.114,0.232,0.014,63.66,-82.9,0
1455530.0,-0.216,-0.311,-0.388,-35.03,150.86,0
1455535.0,0.085,0.34,0.043,74.3,-63.29,0
1455540.0,-0.274,-0.297,-0.062,-46.61,102.84,0
1455545.0,-0.015,0.163,0.021,80.83,35.48,0
1455550.0,-0.362,-0.235,0.081,-32.3,77.36,0
1455555.0,-0.051,0.321,0.048,77.69,46.99,0
1455560.0,-0.18,-0.24,-0.28,-35.71,147.23,0
1455565.0,0.013,0.22,-0.055,75.52,-166.28,0
1455570.0,-0.027,-0.268,-0.187,-54.86,171.72,0
1455575.0,0.018,0.278,-0.156,60.53,-173.31,0
1455580.0,-0.082,-0.29,-0.35,-38.9,166.76,0
1455585.0,0.076,0.172,0.103,53.45,-36.38,0
1455590.0,-0.41,-0.323,-0.007,-38.24,91.03,0
1455595.0,-0.027,0.316,0.084,74.44,18.02,0
1455600.0,-0.142,-0.242,0.002,-59.57,89.1,0
1455605.0,-0.077,0.285,0.17,56.75,24.53,0
1455610.0,-0.13,-0.34,0.098,-64.4,53.02,0
1455615.0,-0.025,0.258,0.179,54.97,7.88,0
1455620.0,0.052,-0.225,-0.309,-35.71,-170.48,0
1455625.0,0.15,0.294,-0.168,52.6,-138.21,0
1455630.0,-0.295,-0.347,-0.158,-46.03,118.17,0
1455635.0,0.057,0.275,0.208,51.91,-15.21,0
1455640.0,0.025,-0.177,-0.161,-47.49,-170.99,0
1455645.0,-0.051,0.34,0.029,80.22,60.82,0
1455650.0,-0.128,-0.34,-0.005,-69.4,92.22,0
1455655.0,-0.07,0.436,0.227,61.36,17.19,0
1455660.0,-0.054,-0.357,-0.175,-62.86,162.98,0
1455665.0,0.021,0.369,0.053,81.29,-21.49,0
1455670.0,-0.298,-0.426,-0.031,-54.92,96.0,0
1455675.0,0.078,0.421,0.143,68.8,-28.57,0
1455680.0,0.021,-0.407,-0.137,-71.25,-171.4,0
1455685.0,0.341,0.306,0.165,38.92,-64.21,0
1455690.0,-0.384,-0.347,-0.189,-39.05,116.25,0
1455695.0,0.327,0.306,-0.015,43.09,-92.54,0
1455700.0,-0.346,-0.393,0.086,-47.8,76.02,0
1455705.0,0.258,0.491,0.33,49.51,-37.97,0
1455710.0,-0.338,-0.412,-0.412,-37.69,140.59,0
1455715.0,0.423,0.366,-0.175,38.66,-112.47,0
1455720.0,-0.398,-0.469,0.172,-47.25,66.62,0
1455725.0,0.394,0.412,0.392,36.5,-45.12,0
1455730.0,-0.408,-0.371,-0.311,-35.88,127.36,0
1455735.0,0.279,0.462,0.019,58.79,-86.11,0
1455740.0,-0.355,-0.441,0.041,-50.95,83.49,0
1455745.0,0.387,0.357,0.263,37.3,-55.78,0
1455750.0,-0.276,-0.369,-0.12,-50.78,113.46,0
1455755.0,0.358,0.352,0.141,42.42,-68.5,0
1455760.0,-0.291,-0.41,-0.038,-54.41,97.54,0
1455765.0,0.411,0.419,0.017,45.52,-87.69,0
1455770.0,-0.341,-0.398,-0.299,-41.23,131.3,0
1455775.0,0.313,0.366,0.009,49.48,-88.28,0
1455780.0,-0.439,-0.369,-0.12,-39.03,105.27,0
1455785.0,0.363,0.414,0.22,44.28,-58.77,0
1455790.0,-0.396,-0.503,-0.036,-51.67,95.21,0
1455795.0,0.2,0.462,0.021,66.45,-83.9,0
1455800.0,-0.255,-0.46,-0.165,-56.56,123.0,0
1455805.0,0.291,0.4,0.053,53.48,-79.78,0
1455810.0,-0.279,-0.302,-0.163,-43.08,120.32,0
1455815.0,0.294,0.299,0.074,44.65,-75.84,0
1455820.0,-0.348,-0.357,-0.235,-40.37,124.0,0
1455825.0,0.265,0.273,-0.041,45.51,-98.77,0
1455830.0,-0.343,-0.254,-0.062,-36.05,100.31,0
1455835.0,0.306,0.397,0.184,48.07,-58.92,0
1455840.0,-0.425,-0.45,-0.273,-41.73,122.75,0
1455845.0,0.181,0.44,-0.024,67.47,-97.58,0
1455850.0,-0.358,-0.402,-0.117,-46.91,108.19,0
1455855.0,0.169,0.493,-0.015,71.0,-94.91,0
1455860.0,-0.405,-0.41,-0.29,-39.41,125.56,0
1455865.0,0.188,0.239,-0.091,48.84,-115.83,0
1455870.0,-0.367,-0.371,-0.278,-38.88,127.12,0
1455875.0,0.138,0.246,-0.108,54.6,-128.02,0
1455880.0,-0.362,-0.168,-0.232,-21.29,122.67,0
1455885.0,0.251,0.258,0.084,44.38,-71.54,0
1455890.0,-0.386,-0.331,-0.177,-37.87,114.66,0
1455895.0,0.131,0.304,-0.015,66.58,-96.34,0
1455900.0,-0.157,-0.28,-0.168,-50.7,136.99,0
1455905.0,0.104,0.261,0.026,67.56,-75.93,0
1455910.0,-0.358,-0.383,-0.266,-40.69,126.63,0
1455915.0,0.136,0.302,0.053,64.25,-68.83,0
1455920.0,-0.255,-0.237,-0.022,-42.86,94.87,0
1455925.0,0.1,0.335,0.041,72.19,-67.87,0
1455930.0,-0.324,-0.338,-0.323,-36.42,134.94,0
1455935.0,0.112,0.292,-0.046,67.55,-112.24,0
1455940.0,-0.298,-0.261,-0.156,-37.85,117.62,0
1455945.0,0.109,0.254,-0.024,66.2,-102.44,0
1455950.0,-0.362,-0.302,-0.331,-31.61,132.37,0
1455955.0,0.174,0.313,0.1,57.36,-60.0,0
1455960.0,-0.257,-0.307,-0.134,-46.6,117.57,0
1455965.0,0.16,0.232,0.055,53.98,-71.01,0
1455970.0,-0.295,-0.271,-0.199,-37.24,123.95,0
1455975.0,0.164,0.416,0.017,68.37,-84.23,0
1455980.0,-0.228,-0.424,-0.256,-51.0,138.31,0
1455985.0,0.126,0.249,-0.07,59.95,-118.91,0
1455990.0,-0.293,-0.355,-0.249,-42.67,130.38,0
1455995.0,0.064,0.311,-0.048,75.61,-127.0,0
1456000.0,-0.288,-0.287,-0.386,-30.84,143.23,0
1456005.0,0.04,0.227,-0.046,75.08,-138.9,0
1456010.0,-0.362,-0.352,-0.151,-41.89,112.62,0
1456015.0,-0.02,0.431,0.086,78.41,13.11,0
1456020.0,-0.307,-0.211,-0.278,-26.97,132.12,0
1456025.0,-0.07,0.196,-0.115,55.49,148.58,0
1456030.0,-0.358,-0.35,-0.343,-35.23,133.77,0
1456035.0,0.119,0.29,-0.094,62.42,-128.21,0
1456040.0,-0.197,-0.237,-0.216,-39.07,137.56,0
1456045.0,0.1,0.297,0.084,66.32,-50.0,0
1456050.0,-0.152,-0.323,-0.237,-48.95,147.4,0
1456055.0,0.114,0.225,0.026,62.51,-77.07,0
1456060.0,-0.221,-0.204,-0.201,-34.26,132.31,0
1456065.0,-0.034,0.282,0.031,80.69,48.01,0
1456070.0,-0.173,-0.323,-0.218,-49.27,141.53,0
1456075.0,-0.044,0.155,-0.082,59.2,151.67,0
1456080.0,-0.25,-0.355,-0.287,-42.95,139.0,0
1456085.0,0.126,0.354,0.134,62.56,-43.26,0
1456090.0,-0.233,-0.242,-0.158,-40.66,124.16,0
1456095.0,0.016,0.218,-0.122,60.48,-172.6,0
1456100.0,-0.128,-0.254,-0.252,-41.99,153.07,0
1456105.0,-0.01,0.163,0.076,64.62,7.79,0
1456110.0,-0.236,-0.235,-0.094,-42.82,111.66,0
1456115.0,-0.068,0.282,-0.223,50.48,163.05,0
1456120.0,-0.152,-0.208,-0.122,-46.93,128.87,0
1456125.0,0.097,0.213,0.27,36.54,-19.79,0
1456130.0,-0.195,-0.374,-0.129,-57.95,123.6,0
1456135.0,-0.039,0.261,-0.144,60.25,164.76,0
1456140.0,-0.022,-0.199,-0.256,-37.7,175.0,0
1456145.0,0.124,0.333,0.165,58.2,-36.83,0
1456150.0,-0.195,-0.28,-0.141,-49.34,125.98,0
1456155.0,0.057,0.318,0.069,74.3,-39.24,0
1456160.0,-0.092,-0.369,-0.072,-72.44,128.09,0
1456165.0,-0.018,0.302,0.009,86.21,61.9,0
1456170.0,-0.154,-0.426,-0.201,-59.26,142.56,0
1456175.0,0.002,0.388,0.105,74.82,-0.83,0
1456180.0,-0.085,-0.352,-0.163,-62.45,152.54,0
1456185.0,0.126,0.345,-0.05,68.5,-111.81,0
1456190.0,-0.111,-0.213,0.086,-56.63,52.23,0
1456195.0,0.002,0.278,0.096,70.99,-0.91,0
1456200.0,0.023,-0.091,-0.225,-21.93,-174.15,0
1456205.0,-0.051,0.237,0.081,67.94,32.2,0
1456210.0,-0.128,-0.381,0.146,-63.01,41.21,0
1456215.0,-0.085,0.167,0.258,31.62,18.14,0
1456220.0,-0.164,-0.208,-0.12,-45.78,126.22,0
1456225.0,-0.061,0.369,0.072,75.7,40.28,0
1456230.0,-0.307,-0.302,-0.077,-43.62,104.03,0
1456235.0,0.03,0.143,0.1,53.84,-16.77,0
1456240.0,0.064,-0.331,-0.216,-55.77,-163.53,0
1456245.0,0.004,0.313,0.091,73.83,-2.47,0
1456250.0,-0.006,-0.417,-0.017,-87.55,161.48,0
1456255.0,-0.142,0.323,0.275,46.21,27.32,0
1456260.0,-0.135,-0.278,0.158,-53.23,40.53,0
1456265.0,-0.188,0.407,0.273,50.86,34.52,0
1456270.0,-0.432,-0.436,-0.094,-44.61,102.22,0
1456275.0,-0.097,0.486,0.167,68.3,29.99,0
1456280.0,0.045,-0.577,-0.086,-80.44,-152.68,0
1456285.0,0.306,0.431,-0.137,52.15,-114.09,0
1456290.0,-0.322,-0.323,-0.321,-35.44,134.94,0
1456295.0,0.32,0.462,0.103,53.96,-72.19,0
1456300.0,-0.389,-0.426,-0.192,-44.53,116.25,0
1456305.0,0.109,0.337,-0.055,70.06,-116.82,0
1456310.0,-0.408,-0.285,-0.034,-34.86,94.72,0
1456315.0,0.298,0.4,0.206,47.8,-55.41,0
1456320.0,-0.465,-0.424,-0.304,-37.33,123.17,0
1456325.0,0.296,0.234,-0.048,38.02,-99.22,0
1456330.0,-0.303,-0.297,0.017,-44.43,86.86,0
1456335.0,0.337,0.476,0.143,52.46,-66.92,0
1456340.0,-0.295,-0.369,-0.256,-43.33,130.95,0
1456345.0,0.31,0.323,-0.007,46.14,-91.36,0
1456350.0,-0.269,-0.443,-0.046,-58.37,99.63,0
1456355.0,0.231,0.438,0.309,48.63,-36.85,0
1456360.0,-0.331,-0.376,-0.199,-44.22,120.98,0
1456365.0,0.229,0.268,-0.144,44.75,-122.13,0
1456370.0,-0.384,-0.374,-0.036,-44.1,95.37,0
1456375.0,0.26,0.529,0.325,51.78,-38.63,0
1456380.0,-0.377,-0.328,-0.309,-33.96,129.36,0
1456385.0,0.267,0.304,-0.252,39.62,-133.26,0
1456390.0,-0.367,-0.402,-0.201,-43.86,118.73,0
1456395.0,0.279,0.433,0.122,54.88,-66.41,0
1456400.0,-0.238,-0.453,-0.225,-54.11,133.43,0
1456405.0,0.148,0.395,-0.019,69.35,-97.46,0
1456410.0,-0.437,-0.374,-0.194,-38.03,113.97,0
1456415.0,0.195,0.318,-0.031,58.12,-99.09,0
1456420.0,-0.473,-0.307,-0.18,-31.24,110.82,0
1456425.0,0.186,0.347,0.124,57.2,-56.22,0
1456430.0,-0.346,-0.319,-0.156,-40.04,114.26,0
1456435.0,0.229,0.323,-0.053,53.97,-102.99,0
1456440.0,-0.173,-0.292,-0.055,-58.11,107.68,0
1456445.0,0.274,0.321,0.175,44.59,-57.53,0
1456450.0,-0.303,-0.455,-0.345,-44.76,138.74,0
1456455.0,0.169,0.321,-0.194,51.24,-138.93,0
1456460.0,-0.271,-0.374,-0.086,-52.68,107.65,0
1456465.0,0.152,0.383,0.182,58.22,-39.96,0
1456470.0,-0.343,-0.338,-0.271,-37.69,128.26,0
1456475.0,0.145,0.33,-0.046,65.26,-107.46,0
1456480.0,-0.288,-0.302,-0.065,-45.62,102.67,0
1456485.0,0.155,0.263,0.009,59.5,-86.52,0
1456490.0,-0.377,-0.328,-0.323,-33.46,130.64,0
1456495.0,0.289,0.376,0.029,52.32,-84.35,0
1456500.0,-0.168,-0.335,-0.053,-62.23,107.41,0
1456505.0,0.069,0.263,-0.05,72.08,-126.34,0
1456510.0,-0.259,-0.314,-0.275,-39.67,136.72,0
1456515.0,0.121,0.421,0.124,67.6,-44.27,0
1456520.0,-0.42,-0.35,-0.278,-34.78,123.5,0
1456525.0,0.104,0.285,-0.127,59.99,-140.57,0
1456530.0,-0.291,-0.287,-0.115,-42.61,111.61,0
1456535.0,0.183,0.285,0.108,53.24,-59.62,0
1456540.0,-0.257,-0.304,-0.398,-32.72,147.12,0
1456545.0,0.167,0.306,-0.082,58.79,-116.07,0
1456550.0,-0.176,-0.438,-0.084,-66.05,115.55,0
1456555.0,0.167,0.419,0.17,60.39,-44.47,0
1456560.0,-0.147,-0.314,-0.108,-59.85,126.29,0
1456565.0,0.085,0.258,0.172,53.36,-26.35,0
1456570.0,-0.303,-0.426,-0.208,-49.25,124.57,0
1456575.0,0.112,0.325,-0.134,61.79,-140.25,0
1456580.0,-0.197,-0.29,-0.225,-44.08,138.79,0
1456585.0,0.231,0.383,0.16,53.68,-55.29,0
1456590.0,-0.164,-0.407,-0.165,-60.25,135.29,0
1456595.0,0.155,0.292,-0.077,59.39,-116.39,0
1456600.0,-0.2,-0.185,-0.115,-38.69,119.97,0
1456605.0,0.04,0.258,0.148,59.28,-15.03,0
1456610.0,-0.382,-0.271,-0.417,-25.6,137.52,0
1456615.0,0.054,0.194,-0.074,64.6,-143.93,0
1456620.0,-0.178,-0.311,0.115,-55.78,57.2,0
1456625.0,0.1,0.318,0.304,44.86,-18.16,0
1456630.0,-0.202,-0.259,-0.388,-30.6,152.5,0
1456635.0,0.069,0.246,-0.211,48.02,-161.99,0
1456640.0,-0.216,-0.309,-0.228,-44.54,136.45,0
1456645.0,0.059,0.177,-0.046,67.15,-127.74,0
1456650.0,-0.149,-0.208,-0.185,-41.29,141.02,0
1456655.0,0.078,0.352,0.155,63.68,-26.68,0
1456660.0,-0.13,-0.204,-0.141,-46.66,137.37,0
1456665.0,0.071,0.177,0.067,61.15,-46.69,0
1456670.0,-0.257,-0.39,-0.144,-52.97,119.23,0
1456675.0,0.023,0.232,-0.139,58.73,-170.58,0
1456680.0,-0.202,-0.235,-0.477,-24.4,157.03,0
1456685.0,0.097,0.211,0.038,63.6,-68.59,0
1456690.0,-0.137,-0.264,-0.041,-61.46,106.57,0
1456695.0,-0.049,0.263,-0.046,75.76,133.11,0
1456700.0,-0.168,-0.268,-0.29,-38.67,149.83,0
1456705.0,0.052,0.311,0.211,55.13,-13.82,0
1456710.0,-0.264,-0.388,0.048,-55.32,79.76,0
1456715.0,0.035,0.22,0.005,80.88,-82.47,0
1456720.0,-0.121,-0.259,-0.168,-51.39,144.29,0
1456725.0,0.013,0.213,-0.084,68.23,-170.87,0
1456730.0,-0.099,-0.326,-0.39,-38.97,165.77,0
1456735.0,0.016,0.318,0.093,73.45,-9.67,0
1456740.0,-0.077,-0.216,-0.106,-58.74,143.7,0
1456745.0,-0.001,0.266,-0.165,58.09,179.7,0
1456750.0,-0.24,-0.323,0.029,-53.19,83.22,0
1456755.0,-0.13,0.254,0.1,57.05,52.36,0
1456760.0,-0.121,-0.141,-0.098,-42.27,129.19,0
1456765.0,-0.008,0.278,0.014,86.63,29.57,0
1456770.0,-0.157,-0.491,-0.211,-61.86,143.42,0
1456775.0,0.054,0.201,0.012,74.57,-77.7,0
1456780.0,0.04,-0.185,-0.103,-59.08,-158.88,0
1456785.0,0.114,0.318,0.048,68.77,-67.29,0
1456790.0,-0.219,-0.223,-0.096,-43.01,113.68,0
1456795.0,-0.089,0.098,-0.084,38.62,133.18,0
1456800.0,0.009,-0.366,-0.055,-81.33,-171.05,0
1456805.0,-0.02,0.376,0.064,79.81,17.26,0
1456810.0,-0.049,-0.295,-0.182,-57.39,165.01,0
1456815.0,0.011,0.211,-0.003,86.9,-102.97,0
1456820.0,0.076,-0.292,-0.211,-52.53,-160.24,0
1456825.0,0.045,0.299,0.103,69.46,-23.46,0
1456830.0,-0.231,-0.309,-0.043,-52.78,100.62,0
1456835.0,-0.03,0.187,0.211,41.27,8.01,0
1456840.0,-0.039,-0.24,0.019,-79.7,64.14,0
1456845.0,-0.149,0.445,0.287,53.98,27.48,0
1456850.0,-0.092,-0.319,-0.024,-73.4,104.7,0
1456855.0,-0.19,0.414,0.088,63.15,65.05,0
1456860.0,0.069,-0.472,-0.089,-76.63,-142.31,0
1456865.0,-0.022,0.263,-0.007,84.88,108.13,0
1456870.0,-0.427,-0.307,-0.177,-33.55,112.55,0
1456875.0,0.033,0.522,0.045,83.89,-35.76,0
1456880.0,0.148,-0.457,-0.244,-58.03,-148.87,0
1456885.0,0.023,0.378,-0.077,78.03,-163.28,0
1456890.0,-0.286,-0.386,-0.175,-49.01,121.47,0
1456895.0,0.394,0.364,0.194,39.63,-63.82,0
1456900.0,-0.429,-0.357,-0.098,-39.01,102.9,0
1456905.0,0.236,0.29,0.024,50.66,-84.25,0
1456910.0,-0.396,-0.395,-0.094,-44.17,103.29,0
1456915.0,0.296,0.448,0.251,49.06,-49.68,0
1456920.0,-0.303,-0.35,-0.072,-48.35,103.38,0
1456925.0,0.339,0.426,0.1,50.3,-73.51,0
1456930.0,-0.18,-0.448,-0.043,-67.5,103.48,0
1456935.0,0.447,0.337,0.203,34.5,-65.53,0
1456940.0,-0.315,-0.362,-0.144,-46.28,114.57,0
1456945.0,0.33,0.364,0.029,47.72,-85.04,0
1456950.0,-0.315,-0.28,-0.117,-39.86,110.48,0
1456955.0,0.363,0.359,0.211,40.54,-59.89,0
1456960.0,-0.35,-0.431,-0.084,-50.11,103.47,0
1456965.0,0.203,0.369,0.007,61.18,-88.02,0
1456970.0,-0.247,-0.419,-0.185,-53.63,126.71,0
1456975.0,0.286,0.438,0.163,53.05,-60.41,0
1456980.0,-0.267,-0.45,0.038,-59.11,81.86,0
1456985.0,0.306,0.419,0.074,53.1,-76.38,0
1456990.0,-0.377,-0.359,-0.328,-35.72,131.06,0
1456995.0,0.277,0.357,0.086,50.89,-72.74,0
1457000.0,-0.377,-0.309,0.012,-39.34,88.2,0
1457005.0,0.069,0.177,-0.177,42.95,-158.86,0
1457010.0,-0.422,-0.295,-0.434,-25.96,135.75,0
1457015.0,0.191,0.4,-0.003,64.5,-90.77,0
1457020.0,-0.37,-0.316,-0.23,-35.99,121.9,0
1457025.0,0.255,0.103,-0.079,21.03,-107.23,0
1457030.0,-0.281,-0.261,-0.146,-39.5,117.49,0
1457035.0,0.243,0.424,0.155,55.72,-57.43,0
1457040.0,-0.36,-0.278,-0.192,-34.27,118.03,0
1457045.0,0.076,0.273,0.11,63.92,-34.55,0
1457050.0,-0.355,-0.347,-0.062,-43.92,99.96,0
1457055.0,0.188,0.378,0.031,63.23,-80.66,0
1457060.0,-0.322,-0.369,-0.297,-40.11,132.72,0
1457065.0,0.179,0.306,0.038,59.18,-77.95,0
1457070.0,-0.161,-0.371,-0.127,-61.06,128.23,0
1457075.0,0.234,0.381,0.057,57.69,-76.23,0
1457080.0,-0.262,-0.292,-0.362,-33.21,144.1,0
1457085.0,0.09,0.258,-0.134,57.97,-146.13,0
1457090.0,-0.348,-0.285,-0.271,-32.88,127.88,0
1457095.0,0.052,0.268,0.029,77.55,-61.12,0
1457100.0,-0.398,-0.237,-0.163,-28.86,112.25,0
1457105.0,0.1,0.254,0.093,61.72,-46.92,0
1457110.0,-0.293,-0.28,-0.201,-38.26,124.49,0
1457115.0,0.081,0.299,0.05,72.41,-58.1,0
1457120.0,-0.164,-0.271,-0.144,-51.17,131.3,0
1457125.0,0.248,0.335,0.031,53.26,-82.89,0
1457130.0,-0.121,-0.355,-0.273,-49.9,156.18,0
1457135.0,0.16,0.275,-0.029,59.49,-100.27,0
1457140.0,-0.2,-0.29,-0.113,-51.66,119.45,0
1457145.0,0.102,0.316,0.053,70.03,-62.78,0
1457150.0,-0.377,-0.321,-0.357,-31.74,133.45,0
1457155.0,0.025,0.287,-0.036,81.26,-144.79,0
1457160.0,-0.31,-0.261,-0.103,-38.66,108.41,0
1457165.0,0.128,0.22,0.143,48.82,-41.82,0
1457170.0,-0.274,-0.247,-0.235,-34.38,130.61,0
1457175.0,0.081,0.261,-0.103,63.36,-142.01,0
1457180.0,-0.128,-0.235,-0.249,-39.98,152.85,0
1457185.0,0.097,0.211,0.033,63.96,-71.07,0
1457190.0,-0.219,-0.374,-0.311,-44.48,144.91,0
1457195.0,0.002,0.263,-0.127,64.23,-179.32,0
1457200.0,-0.204,-0.206,-0.201,-35.69,134.56,0
1457205.0,0.023,0.297,0.11,69.26,-11.84,0
1457210.0,-0.252,-0.314,-0.256,-41.1,135.46,0
1457215.0,0.047,0.282,-0.12,65.49,-158.59,0
1457220.0,-0.247,-0.29,-0.153,-44.87,121.79,0
1457225.0,0.102,0.325,0.134,62.64,-37.32,0
1457230.0,-0.247,-0.34,-0.254,-43.81,135.74,0
1457235.0,0.047,0.163,-0.103,55.13,-155.49,0
1457240.0,-0.161,-0.264,-0.292,-38.29,151.11,0
1457245.0,0.004,0.244,-0.043,79.91,-174.83,0
1457250.0,-0.226,-0.299,-0.271,-40.34,140.15,0
1457255.0,0.004,0.342,0.029,85.18,-7.79,0
1457260.0,-0.204,-0.283,-0.117,-50.17,119.89,0
1457265.0,0.131,0.285,0.191,50.85,-34.35,0
1457270.0,-0.255,-0.448,-0.278,-49.92,137.5,0
1457275.0,0.073,0.278,0.067,70.32,-47.64,0
1457280.0,-0.054,-0.268,-0.034,-76.73,122.17,0
1457285.0,-0.063,0.203,0.026,71.42,67.48,0
1457290.0,-0.13,-0.23,-0.323,-33.42,158.07,0
1457295.0,-0.025,0.184,-0.05,73.03,153.8,0
1457300.0,-0.18,-0.192,-0.177,-37.15,134.5,0
1457305.0,-0.054,0.167,-0.11,53.79,154.1,0
1457310.0,-0.259,-0.216,0.124,-36.85,64.39,0
1457315.0,-0.092,0.242,0.031,68.14,71.37,0
1457320.0,-0.137,-0.405,-0.117,-65.94,130.54,0
1457325.0,-0.034,0.258,-0.015,81.78,112.89,0
1457330.0,-0.188,-0.448,-0.352,-48.3,151.95,0
1457335.0,0.124,0.445,0.069,72.34,-60.74,0
1457340.0,-0.049,-0.302,-0.046,-77.52,133.11,0
1457345.0,0.023,0.28,-0.01,84.89,-112.89,0
1457350.0,-0.161,-0.299,-0.036,-61.1,102.61,0
1457355.0,-0.061,0.249,-0.034,74.41,119.01,0
1457360.0,-0.077,-0.252,-0.077,-66.56,134.73,0
1457365.0,-0.042,0.27,0.211,51.56,11.17,0
1457370.0,-0.025,-0.338,-0.065,-78.39,159.04,0
1457375.0,-0.061,0.28,0.036,75.87,59.52,0
1457380.0,-0.013,-0.297,-0.079,-74.89,170.78,0
1457385.0,-0.013,0.258,0.009,86.47,53.76,0
1457390.0,-0.288,-0.378,-0.019,-52.65,93.83,0
1457395.0,0.054,0.258,0.136,60.42,-21.68,0
1457400.0,-0.039,-0.355,-0.275,-51.87,171.9,0
1457405.0,-0.015,0.242,0.007,86.03,65.27,0
1457410.0,0.025,-0.347,-0.005,-85.73,-101.0,0
1457415.0,0.018,0.345,0.124,69.96,-8.36,0
1457420.0,-0.049,-0.29,-0.237,-50.12,168.38,0
1457425.0,0.002,0.287,0.115,68.21,-0.76,0
1457430.0,-0.233,-0.316,0.005,-53.59,88.86,0
1457435.0,-0.044,0.306,0.093,71.4,25.26,0
1457440.0,0.006,-0.192,-0.115,-58.98,-176.86,0
1457445.0,-0.104,0.27,0.086,63.49,50.36,0
1457450.0,0.107,-0.326,-0.168,-58.59,-147.5,0
1457455.0,-0.149,0.433,0.132,65.33,48.63,0
1457460.0,0.054,-0.369,-0.017,-81.25,-107.34,0
1457465.0,0.002,0.445,0.057,82.66,-1.52,0
1457470.0,-0.326,-0.489,-0.153,-53.56,115.16,0
1457475.0,-0.015,0.46,0.084,79.52,10.33,0
1457480.0,0.097,-0.41,-0.185,-63.01,-152.2,0
1457485.0,0.363,0.409,0.033,48.3,-84.75,0
1457490.0,-0.317,-0.347,0.009,-47.61,88.3,0
1457495.0,0.322,0.385,0.222,44.53,-55.38,0
1457500.0,-0.3,-0.424,-0.108,-53.04,109.77,0
1457505.0,0.358,0.412,0.254,43.16,-54.7,0
1457510.0,-0.288,-0.381,-0.098,-51.36,108.84,0
1457515.0,0.339,0.311,0.005,42.53,-89.22,0
1457520.0,-0.319,-0.405,-0.158,-48.64,116.35,0
1457525.0,0.303,0.416,0.201,48.86,-56.46,0
1457530.0,-0.293,-0.347,-0.11,-47.97,110.63,0
1457535.0,0.282,0.462,-0.086,57.47,-107.05,0
1457540.0,-0.355,-0.441,-0.216,-46.68,121.26,0
1457545.0,0.167,0.273,0.084,55.64,-63.36,0
1457550.0,-0.386,-0.252,-0.168,-30.85,113.47,0
1457555.0,0.248,0.309,-0.036,50.92,-98.27,0
1457560.0,-0.269,-0.343,-0.153,-47.88,119.69,0
1457565.0,0.222,0.206,0.108,39.85,-64.12,0
1457570.0,-0.197,-0.359,-0.103,-58.23,117.6,0
1457575.0,0.322,0.51,0.136,55.53,-67.08,0
1457580.0,-0.276,-0.465,-0.026,-59.15,95.48,0
1457585.0,0.2,0.299,0.1,53.17,-63.37,0
1457590.0,-0.413,-0.371,-0.256,-37.39,121.85,0
1457595.0,0.212,0.469,0.005,65.65,-88.75,0
1457600.0,-0.305,-0.333,-0.019,-47.46,93.62,0
1457605.0,0.222,0.172,0.084,36.0,-69.34,0
1457610.0,-0.353,-0.438,-0.331,-42.19,133.13,0
1457615.0,0.188,0.412,-0.038,64.98,-101.55,0
1457620.0,-0.343,-0.319,-0.213,-38.25,121.85,0
1457625.0,0.248,0.352,0.048,54.31,-79.11,0
1457630.0,-0.221,-0.438,-0.161,-58.06,125.98,0
1457635.0,0.128,0.299,0.081,63.07,-57.68,0
1457640.0,-0.238,-0.12,-0.139,-23.51,120.3,0
1457645.0,0.128,0.249,-0.041,61.56,-107.65,0
1457650.0,-0.358,-0.376,-0.163,-43.74,114.5,0
1457655.0,0.104,0.234,-0.005,65.96,-92.71,0
1457660.0,-0.288,-0.287,-0.28,-35.57,134.2,0
1457665.0,0.152,0.388,-0.019,68.39,-97.22,0
1457670.0,-0.329,-0.343,-0.161,-43.1,116.02,0
1457675.0,0.131,0.328,0.053,66.74,-68.13,0
1457680.0,-0.202,-0.237,-0.199,-39.92,134.56,0
1457685.0,0.148,0.273,-0.038,60.79,-104.61,0
1457690.0,-0.422,-0.419,-0.328,-38.09,127.85,0
1457695.0,0.215,0.352,0.06,57.66,-74.46,0
1457700.0,-0.212,-0.273,-0.062,-51.07,106.44,0
1457705.0,0.057,0.325,0.031,78.79,-61.31,0
1457710.0,-0.283,-0.326,-0.355,-35.67,141.36,0
1457715.0,0.131,0.256,0.038,61.98,-73.74,0
1457720.0,-0.157,-0.328,-0.077,-62.02,116.13,0
1457725.0,0.1,0.349,0.009,74.01,-84.6,0
1457730.0,-0.247,-0.29,-0.275,-38.05,138.07,0
1457735.0,0.143,0.34,0.017,67.07,-83.37,0
1457740.0,-0.221,-0.338,-0.168,-50.58,127.18,0
1457745.0,-0.008,0.196,-0.0,87.65,91.14,0
1457750.0,-0.322,-0.237,-0.223,-31.22,124.71,0
1457755.0,0.162,0.376,0.201,55.52,-38.86,0
1457760.0,-0.178,-0.256,-0.103,-51.25,120.08,0
1457765.0,0.052,0.146,-0.015,69.76,-105.67,0
1457770.0,-0.269,-0.335,-0.242,-42.82,131.97,0
1457775.0,0.073,0.397,-0.007,79.49,-95.72,0
1457780.0,-0.197,-0.335,-0.275,-44.71,144.4,0
1457785.0,0.179,0.304,0.103,55.85,-60.09,0
1457790.0,-0.128,-0.491,-0.177,-66.0,144.23,0
1457795.0,0.092,0.376,-0.06,73.65,-122.98,0
1457800.0,-0.19,-0.199,-0.244,-32.72,142.13,0
1457805.0,0.03,0.258,0.124,63.66,-13.67,0
1457810.0,-0.269,-0.366,-0.18,-48.56,123.75,0
1457815.0,0.03,0.261,-0.038,79.37,-141.82,0
1457820.0,-0.24,-0.18,-0.077,-35.47,107.72,0
1457825.0,0.018,0.234,0.139,59.18,-7.51,0
1457830.0,-0.212,-0.371,-0.405,-39.11,152.41,0
1457835.0,-0.037,0.232,-0.194,49.6,169.27,0
1457840.0,-0.116,-0.225,-0.168,-47.85,145.38,0
1457845.0,0.138,0.337,0.115,61.99,-50.25,0
1457850.0,-0.154,-0.438,-0.228,-57.91,145.9,0
1457855.0,-0.087,0.251,-0.117,59.8,143.46,0
1457860.0,-0.125,-0.213,-0.259,-36.56,154.15,0
1457865.0,-0.008,0.304,-0.062,78.3,172.64,0
1457870.0,-0.291,-0.266,-0.213,-36.42,126.27,0
1457875.0,0.057,0.203,0.129,55.27,-23.66,0
1457880.0,-0.195,-0.366,-0.115,-58.31,120.57,0
1457885.0,0.021,0.359,-0.07,78.57,-163.46,0
1457890.0,-0.097,-0.366,-0.307,-48.74,162.51,0
1457895.0,-0.008,0.244,0.086,70.5,5.35,0
1457900.0,0.037,-0.299,-0.022,-81.78,-120.11,0
1457905.0,0.061,0.278,0.122,63.81,-26.72,0
1457910.0,-0.061,-0.273,-0.084,-69.22,144.12,0
1457915.0,-0.058,0.175,-0.034,68.9,120.0,0
1457920.0,-0.145,-0.242,-0.244,-40.44,149.4,0
1457925.0,0.013,0.251,0.076,72.83,-10.0,0
1457930.0,-0.224,-0.311,-0.12,-50.84,118.2,0
1457935.0,-0.032,0.4,-0.096,75.8,161.55,0
1457940.0,-0.066,-0.345,-0.204,-58.19,162.17,0
1457945.0,-0.073,0.316,0.069,72.36,46.39,0
1457950.0,-0.051,-0.283,-0.046,-76.37,131.74,0
1457955.0,-0.113,0.251,-0.177,50.04,147.4,0
1457960.0,-0.042,-0.264,-0.149,-59.65,164.37,0
1457965.0,0.04,0.28,0.17,58.07,-13.2,0
1457970.0,-0.018,-0.338,-0.0,-87.01,90.52,0
1457975.0,0.009,0.316,0.081,75.5,-6.11,0
1457980.0,-0.092,-0.283,-0.158,-57.09,149.86,0
1457985.0,-0.03,0.311,0.086,73.7,18.99,0
1457990.0,-0.338,-0.297,-0.082,-40.47,103.55,0
1457995.0,-0.087,0.225,0.076,62.74,48.71,0
1458000.0,0.052,-0.137,-0.146,-41.38,-160.49,0
1458005.0,0.052,0.294,-0.026,78.82,-117.09,0
1458010.0,0.04,-0.218,-0.218,-44.53,-169.65,0
1458015.0,-0.001,0.11,0.153,35.7,0.33,0
1458020.0,0.002,-0.278,-0.019,-86.01,-175.51,0
1458025.0,-0.085,0.266,0.148,57.26,29.73,0
1458030.0,-0.374,-0.345,-0.041,-42.49,96.23,0
1458035.0,-0.192,0.304,0.189,48.41,45.52,0
1458040.0,0.018,-0.436,-0.122,-74.17,-171.5,0
1458045.0,-0.077,0.397,0.057,76.36,53.52,0
1458050.0,0.069,-0.319,-0.113,-67.51,-148.69,0
1458055.0,-0.018,0.397,0.014,86.74,51.15,0
1458060.0,0.112,-0.386,-0.216,-57.8,-152.63,0
1458065.0,0.035,0.306,0.031,81.32,-48.53,0
1458070.0,-0.434,-0.34,-0.185,-35.79,113.02,0
1458075.0,-0.051,0.395,0.055,79.24,42.98,0
1458080.0,0.109,-0.376,-0.192,-59.6,-150.32,0
1458085.0,0.294,0.385,0.151,49.42,-62.83,0
1458090.0,-0.269,-0.378,-0.003,-54.59,90.54,0
1458095.0,0.224,0.373,0.208,50.67,-47.13,0
1458100.0,-0.307,-0.393,-0.086,-50.9,105.69,0
1458105.0,0.351,0.366,0.079,45.5,-77.34,0
1458110.0,-0.288,-0.383,-0.242,-45.52,130.02,0
1458115.0,0.346,0.349,-0.024,45.19,-93.98,0
1458120.0,-0.279,-0.335,-0.132,-47.41,115.32,0
1458125.0,0.27,0.249,0.096,41.01,-70.48,0
1458130.0,-0.255,-0.264,-0.084,-44.5,108.25,0
1458135.0,0.112,0.4,-0.012,74.3,-96.2,0
1458140.0,-0.427,-0.376,-0.271,-36.64,122.37,0
1458145.0,0.167,0.409,0.117,63.53,-54.9,0
1458150.0,-0.415,-0.474,-0.084,-48.23,101.44,0
1458155.0,0.234,0.445,-0.031,62.09,-97.62,0
1458160.0,-0.303,-0.417,-0.29,-44.85,133.77,0
1458165.0,0.27,0.333,0.093,49.38,-70.93,0
1458170.0,-0.362,-0.35,-0.156,-41.56,113.26,0
1458175.0,0.217,0.364,-0.07,57.93,-107.78,0
1458180.0,-0.295,-0.398,-0.201,-48.05,124.27,0
1458185.0,0.217,0.304,0.155,48.71,-54.38,0
1458190.0,-0.322,-0.426,-0.125,-51.02,111.18,0
1458195.0,0.186,0.452,0.029,67.43,-81.26,0
1458200.0,-0.257,-0.388,-0.187,-50.68,126.02,0
1458205.0,0.286,0.263,0.124,40.13,-66.53,0
1458210.0,-0.31,-0.302,-0.137,-41.72,113.8,0
1458215.0,0.191,0.385,-0.036,63.27,-100.71,0
1458220.0,-0.487,-0.582,-0.115,-49.31,103.3,0
1458225.0,0.38,0.531,-0.05,54.21,-97.56,0
1458230.0,-0.712,-0.606,-0.558,-33.81,128.09,0
1458235.0,-0.042,0.46,-0.249,61.2,170.53,0
1458240.0,-0.101,-0.331,-0.055,-70.74,118.57,0
1458245.0,0.14,0.347,0.117,62.21,-50.15,0
1458250.0,-0.171,-0.517,-0.225,-61.34,142.81,0
1458255.0,0.169,0.359,0.117,60.18,-55.29,0
1458260.0,-0.281,-0.242,-0.031,-40.56,96.35,0
1458265.0,0.006,0.299,-0.237,51.58,-178.48,0
1458270.0,-0.283,-0.311,-0.431,-31.11,146.68,0
1458275.0,0.104,0.206,0.227,39.44,-24.68,0
1458280.0,-0.195,-0.149,0.031,-36.99,80.97,0
1458285.0,0.217,0.163,0.007,36.84,-88.15,0
1458290.0,-0.326,-0.366,-0.261,-41.24,128.65,0
1458295.0,0.15,0.33,0.091,62.04,-58.8,0
1458300.0,-0.226,-0.299,-0.228,-43.04,135.21,0
1458305.0,0.152,0.436,-0.043,70.02,-105.85,0
1458310.0,-0.262,-0.352,-0.247,-44.38,133.3,0
1458315.0,-0.001,0.294,0.062,78.09,0.81,0
1458320.0,-0.279,-0.292,-0.151,-42.68,118.46,0
1458325.0,0.006,0.285,-0.029,84.07,-167.69,0
1458330.0,-0.405,-0.328,-0.441,-28.72,137.38,0
1458335.0,0.104,0.369,-0.139,64.74,-143.08,0
1458340.0,-0.238,-0.381,-0.259,-47.3,137.4,0
1458345.0,0.126,0.211,0.072,55.45,-60.37,0
1458350.0,-0.228,-0.283,-0.242,-40.35,136.66,0
1458355.0,0.121,0.416,-0.01,73.72,-94.59,0
1458360.0,-0.166,-0.256,-0.199,-44.69,140.14,0
1458365.0,0.059,0.201,0.076,64.34,-37.65,0
1458370.0,-0.243,-0.419,-0.067,-59.0,105.48,0
1458375.0,0.069,0.349,0.122,68.18,-29.34,0
1458380.0,-0.197,-0.261,-0.175,-44.73,131.58,0
1458385.0,0.061,0.333,-0.012,79.35,-101.18,0
1458390.0,-0.188,-0.323,-0.264,-44.99,144.55,0
1458395.0,0.191,0.287,0.081,54.18,-66.92,0
1458400.0,-0.137,-0.309,-0.137,-57.91,134.85,0
1458405.0,0.088,0.299,-0.003,73.65,-91.67,0
1458410.0,-0.274,-0.417,-0.297,-45.89,137.33,0
1458415.0,-0.08,0.392,-0.015,78.31,100.31,0
1458420.0,-0.24,-0.28,-0.208,-41.38,130.94,0
1458425.0,0.03,0.33,0.091,73.84,-18.42,0
1458430.0,-0.063,-0.424,-0.077,-76.8,140.57,0
1458435.0,0.006,0.282,0.076,74.8,-4.71,0
1458440.0,-0.027,-0.254,-0.204,-51.02,172.39,0
1458445.0,0.157,0.254,0.043,57.29,-74.72,0
1458450.0,-0.192,-0.297,-0.213,-45.96,137.94,0
1458455.0,0.112,0.273,0.062,64.9,-60.92,0
1458460.0,-0.061,-0.273,-0.053,-73.58,131.02,0
1458465.0,-0.085,0.242,0.098,61.81,40.83,0
1458470.0,-0.142,-0.252,-0.232,-42.72,148.55,0
1458475.0,-0.094,0.191,-0.055,60.28,120.37,0
1458480.0,-0.121,-0.151,-0.146,-38.54,140.48,0
1458485.0,0.016,0.275,0.069,75.52,-12.91,0
1458490.0,-0.113,-0.445,-0.256,-57.82,156.14,0
1458495.0,0.057,0.306,0.031,78.11,-61.31,0
1458500.0,-0.188,-0.381,-0.23,-52.07,140.79,0
1458505.0,0.049,0.392,-0.0,82.83,-90.19,0
1458510.0,-0.087,-0.319,-0.055,-72.07,122.39,0
1458515.0,-0.039,0.201,0.036,75.21,47.62,0
1458520.0,-0.034,-0.299,-0.082,-73.53,157.13,0
1458525.0,-0.145,0.254,0.067,57.88,65.17,0
1458530.0,-0.109,-0.24,-0.283,-38.35,158.98,0
1458535.0,-0.099,0.376,0.014,75.09,81.84,0
1458540.0,-0.03,-0.295,-0.022,-82.9,126.25,0
1458545.0,0.04,0.287,0.112,67.45,-19.51,0
1458550.0,-0.058,-0.271,-0.091,-68.21,147.38,0
1458555.0,-0.008,0.213,-0.053,75.91,171.33,0
1458560.0,0.061,-0.182,-0.189,-42.46,-162.04,0
1458565.0,-0.063,0.275,0.029,75.87,65.65,0
1458570.0,-0.001,-0.388,-0.106,-74.79,179.52,0
1458575.0,-0.135,0.249,0.045,60.23,71.43,0
1458580.0,-0.08,-0.266,-0.101,-64.2,141.58,0
1458585.0,-0.013,0.254,0.096,69.18,7.65,0
1458590.0,-0.346,-0.376,-0.082,-46.64,103.28,0
1458595.0,-0.018,0.163,0.132,50.79,7.64,0
1458600.0,0.114,-0.192,-0.17,-43.1,-146.17,0
1458605.0,-0.022,0.141,0.132,46.6,9.68,0
1458610.0,-0.034,-0.216,-0.065,-71.21,152.04,0
1458615.0,-0.128,0.232,0.033,60.36,75.37,0
1458620.0,-0.006,-0.275,-0.117,-66.88,177.24,0
1458625.0,-0.027,0.335,0.27,50.95,5.75,0
1458630.0,-0.403,-0.359,-0.07,-41.29,99.8,0
1458635.0,-0.044,0.225,-0.185,49.86,166.6,0
1458640.0,0.061,-0.223,-0.252,-40.71,-166.29,0
1458645.0,0.047,0.419,0.309,53.29,-8.66,0
1458650.0,0.092,-0.357,-0.151,-63.61,-148.51,0
1458655.0,-0.183,0.395,-0.22,54.05,140.33,0
1458660.0,0.15,-0.474,-0.005,-72.44,-91.89,0
1458665.0,-0.082,0.318,0.182,57.91,24.35,0
1458670.0,-0.499,-0.395,-0.359,-32.73,125.76,0
1458675.0,-0.173,0.436,0.074,66.61,66.86,0
1458680.0,0.116,-0.323,0.153,-59.26,-37.26,0
1458685.0,0.31,0.309,-0.012,44.82,-92.24,0
1458690.0,-0.338,-0.455,-0.252,-47.18,126.62,0
1458695.0,0.454,0.419,0.261,38.66,-60.13,0
1458700.0,-0.379,-0.345,-0.127,-40.78,108.53,0
1458705.0,0.203,0.352,-0.244,47.94,-140.33,0
1458710.0,-0.386,-0.424,-0.225,-43.47,120.24,0
1458715.0,0.188,0.433,0.232,55.4,-39.05,0
1458720.0,-0.389,-0.414,-0.187,-43.85,115.68,0
1458725.0,0.181,0.311,-0.077,57.7,-112.98,0
1458730.0,-0.353,-0.407,-0.132,-47.23,110.49,0
1458735.0,0.262,0.357,0.072,52.65,-74.73,0
1458740.0,-0.25,-0.283,-0.264,-37.9,136.52,0
1458745.0,0.174,0.28,-0.019,58.0,-96.34,0
1458750.0,-0.281,-0.278,-0.043,-44.35,98.75,0
1458755.0,0.21,0.369,0.017,60.27,-85.48,0
1458760.0,-0.365,-0.371,-0.366,-35.68,135.13,0
1458765.0,0.26,0.266,0.033,45.37,-82.69,0
1458770.0,-0.374,-0.383,-0.106,-44.58,105.74,0
1458775.0,0.27,0.4,0.017,55.94,-86.48,0
1458780.0,-0.271,-0.34,-0.216,-44.46,128.47,0
1458785.0,0.102,0.258,0.096,61.58,-46.87,0
1458790.0,-0.228,-0.259,-0.106,-45.81,114.8,0
1458795.0,0.172,0.373,0.036,64.86,-78.22,0
1458800.0,-0.329,-0.295,-0.228,-36.38,124.69,0
1458805.0,0.236,0.232,0.014,44.45,-86.56,0
1458810.0,-0.444,-0.424,-0.292,-38.58,123.37,0
1458815.0,0.234,0.455,0.067,61.87,-74.03,0
1458820.0,-0.338,-0.338,-0.177,-41.47,117.65,0
1458825.0,0.133,0.316,-0.005,67.12,-92.13,0
1458830.0,-0.276,-0.338,-0.24,-42.73,130.94,0
1458835.0,0.207,0.278,0.153,47.12,-53.57,0
1458840.0,-0.329,-0.237,-0.17,-32.64,117.35,0
1458845.0,0.09,0.258,-0.041,69.05,-114.39,0
1458850.0,-0.269,-0.302,-0.252,-39.33,133.08,0
1458855.0,0.131,0.273,0.067,61.69,-62.92,0
1458860.0,-0.231,-0.228,-0.211,-36.06,132.42,0
1458865.0,0.095,0.201,-0.072,59.34,-127.19,0
1458870.0,-0.209,-0.271,-0.117,-48.45,119.32,0
1458875.0,0.133,0.376,0.122,64.33,-47.53,0
1458880.0,-0.269,-0.407,-0.304,-45.07,138.51,0
1458885.0,0.076,0.225,0.002,71.38,-88.31,0
1458890.0,-0.283,-0.228,-0.017,-38.72,93.42,0
1458895.0,0.179,0.328,0.11,57.38,-58.39,0
1458900.0,-0.197,-0.235,-0.283,-34.26,145.1,0
1458905.0,0.14,0.251,-0.022,60.52,-98.79,0
1458910.0,-0.118,-0.268,-0.146,-54.98,141.05,0
1458915.0,0.081,0.294,-0.144,60.75,-150.75,0
1458920.0,-0.262,-0.388,-0.319,-43.26,140.58,0
1458925.0,0.059,0.263,0.1,66.14,-30.43,0
1458930.0,-0.283,-0.35,-0.07,-50.16,103.8,0
1458935.0,0.016,0.335,-0.003,87.25,-99.14,0
1458940.0,-0.204,-0.287,-0.137,-49.46,123.76,0
