time_ms,accel_x,accel_y,accel_z,pitch,roll,sync
677801.0,-0.001,-0.037,-0.006,-80.83,166.89,0
677806.0,-0.018,-0.001,0.013,-2.84,53.66,0
677811.0,0.018,-0.035,0.001,-62.74,-85.64,0
677816.0,-0.013,-0.018,-0.013,-43.83,134.3,0
677821.0,-0.001,-0.006,0.032,-10.3,2.39,0
677826.0,0.001,0.006,-0.003,59.42,-163.18,0
677831.0,-0.018,-0.008,-0.013,-20.41,125.68,0
677836.0,0.025,-0.008,-0.003,-18.22,-97.82,0
677841.0,0.011,0.006,0.042,7.96,-14.16,0
677846.0,-0.016,-0.004,-0.037,-5.0,156.95,0
677851.0,0.011,0.011,-0.018,27.65,-149.19,0
677856.0,0.006,0.013,0.004,62.39,-57.22,0
677861.0,0.011,0.025,-0.008,61.97,-127.75,0
677866.0,0.018,-0.015,-0.02,-29.91,-138.61,0
677871.0,0.006,0.032,0.011,69.08,-28.05,0
677876.0,-0.001,-0.006,0.028,-12.02,2.8,0
677881.0,0.027,0.016,0.032,20.22,-40.12,0
677886.0,-0.011,-0.018,-0.02,-37.9,151.56,0
677891.0,0.023,0.013,0.004,30.06,-80.57,0
677896.0,0.003,0.008,0.006,50.24,-29.18,0
677901.0,-0.032,0.004,0.006,6.34,79.29,0
677906.0,0.011,0.011,0.021,25.17,-27.36,0
677911.0,-0.021,-0.018,0.016,-34.67,52.53,0
677916.0,-0.009,-0.006,-0.015,-18.54,150.99,0
677921.0,-0.018,-0.001,-0.006,-3.36,107.82,0
677926.0,0.025,-0.011,-0.001,-23.16,-92.38,0
677931.0,-0.004,0.004,0.004,34.68,44.99,0
677936.0,-0.016,-0.02,-0.003,-51.56,102.31,0
677941.0,0.023,-0.025,0.016,-42.32,-55.16,0
677946.0,-0.013,-0.006,-0.049,-6.64,164.76,0
677951.0,0.006,0.018,0.021,40.23,-15.86,0
677956.0,0.015,0.028,-0.027,41.32,-150.63,0
677961.0,-0.001,0.011,-0.027,21.6,177.16,0
677966.0,-0.001,0.004,-0.027,7.63,177.16,0
677971.0,-0.032,0.016,0.011,24.53,71.4,0
677976.0,0.008,0.016,0.006,56.73,-53.22,0
677981.0,-0.006,0.006,-0.006,35.62,133.47,0
677986.0,0.02,0.001,0.018,2.69,-48.1,0
677991.0,0.018,-0.011,0.047,-12.05,-20.8,0
677996.0,0.011,-0.015,0.006,-51.61,-59.93,0
678001.0,0.013,0.008,-0.001,32.95,-94.56,0
678006.0,-0.025,-0.004,-0.003,-7.83,97.72,0
678011.0,0.015,0.011,-0.037,15.17,-157.37,0
678016.0,0.015,-0.03,0.004,-62.03,-76.31,0
678021.0,0.011,0.025,-0.011,59.24,-135.0,0
678026.0,0.006,-0.006,-0.02,-15.7,-163.9,0
678031.0,-0.025,0.011,-0.025,16.98,134.64,0
678036.0,-0.013,0.025,-0.035,34.25,158.91,0
678041.0,-0.011,0.013,-0.011,41.0,134.15,0
678046.0,0.02,-0.059,0.025,-61.08,-38.59,0
678051.0,0.008,-0.008,0.009,-35.0,-43.91,0
678056.0,-0.011,0.03,-0.02,52.58,151.56,0
678061.0,0.006,0.035,0.006,76.32,-43.47,0
678066.0,-0.009,0.025,-0.032,37.16,165.13,0
678071.0,0.003,-0.006,-0.011,-27.9,-162.08,0
678076.0,-0.009,0.013,-0.023,28.75,159.29,0
678081.0,-0.011,0.018,0.018,40.44,31.11,0
678086.0,0.015,-0.025,-0.003,-57.8,-102.56,0
678091.0,-0.001,0.008,0.023,20.24,3.39,0
678096.0,-0.037,-0.02,-0.047,-18.78,141.3,0
678101.0,0.013,-0.015,0.016,-37.19,-39.6,0
678106.0,-0.004,0.028,0.004,79.12,44.99,0
678111.0,0.025,-0.032,-0.042,-33.54,-149.1,0
678116.0,0.006,0.001,0.044,1.63,-7.47,0
678121.0,0.015,-0.015,-0.013,-37.52,-130.18,0
678126.0,0.025,-0.025,-0.047,-25.39,-151.77,0
678131.0,-0.013,-0.004,0.011,-11.51,50.64,0
678136.0,-0.001,-0.006,-0.006,-44.64,166.89,0
678141.0,-0.021,-0.027,0.001,-53.18,86.21,0
678146.0,0.003,-0.001,-0.039,-1.62,-175.02,0
678151.0,-0.001,0.004,-0.018,11.62,175.64,0
678156.0,-0.021,0.018,-0.058,16.22,160.68,0
678161.0,0.015,0.004,-0.001,13.38,-93.85,0
678166.0,-0.009,0.004,0.001,23.0,80.97,0
678171.0,-0.023,-0.004,0.023,-6.19,45.0,0
678176.0,0.011,0.03,-0.011,63.42,-135.0,0
678181.0,0.025,0.028,-0.044,28.57,-150.49,0
678186.0,0.032,0.004,-0.011,6.19,-108.26,0
678191.0,0.003,0.025,0.013,61.38,-14.44,0
678196.0,0.003,0.004,0.016,12.85,-12.31,0
678201.0,0.013,-0.018,-0.025,-32.41,-152.49,0
678206.0,-0.001,0.02,-0.018,48.86,175.64,0
678211.0,0.011,-0.023,0.006,-61.58,-59.93,0
678216.0,0.008,-0.023,-0.049,-24.56,-170.46,0
678221.0,0.02,-0.018,0.004,-41.04,-79.47,0
678226.0,0.003,0.001,0.028,2.62,-7.06,0
678231.0,0.013,-0.035,-0.037,-41.48,-160.61,0
678236.0,-0.032,-0.008,0.006,-14.09,79.29,0
678241.0,-0.023,0.008,0.004,20.03,80.7,0
678246.0,-0.001,-0.042,0.064,-33.32,1.22,0
678251.0,-0.011,-0.013,0.056,-12.83,10.97,0
678256.0,0.006,-0.035,-0.027,-51.06,-167.98,0
678261.0,0.027,-0.013,0.009,-24.53,-72.67,0
678266.0,0.008,-0.004,0.016,-11.2,-27.6,0
678271.0,-0.025,0.013,-0.001,27.62,92.35,0
678276.0,0.006,-0.013,0.013,-41.98,-23.61,0
678281.0,-0.016,-0.023,0.03,-33.73,27.59,0
678286.0,-0.025,-0.001,-0.008,-2.41,108.0,0
678291.0,-0.001,-0.001,-0.03,-2.15,177.39,0
678296.0,0.02,0.016,0.006,36.54,-73.07,0
678301.0,-0.006,-0.006,-0.011,-25.71,149.93,0
678306.0,-0.006,0.018,0.016,46.9,21.35,0
678311.0,0.015,-0.02,-0.032,-29.62,-154.41,0
678316.0,-0.004,-0.011,-0.015,-34.0,166.31,0
678321.0,0.018,-0.023,0.03,-32.96,-30.6,0
678326.0,-0.009,-0.027,0.025,-45.8,18.65,0
678331.0,0.001,-0.015,0.006,-68.07,-9.58,0
678336.0,0.037,-0.015,-0.006,-22.48,-98.96,0
678341.0,-0.006,-0.044,-0.001,-81.98,99.58,0
678346.0,0.001,-0.023,-0.03,-37.27,-178.0,0
678351.0,0.011,-0.032,0.049,-32.62,-12.16,0
678356.0,-0.011,-0.049,-0.013,-70.87,139.95,0
678361.0,-0.004,-0.018,-0.011,-57.8,160.54,0
678366.0,-0.011,0.001,-0.027,2.48,158.23,0
678371.0,0.003,0.004,0.011,17.76,-17.42,0
678376.0,-0.009,0.025,0.032,36.9,14.73,0
678381.0,0.006,0.023,-0.006,70.15,-135.0,0
678386.0,-0.001,0.011,-0.008,52.49,170.63,0
678391.0,0.018,-0.001,-0.001,-3.59,-93.33,0
678396.0,0.003,0.008,-0.015,28.2,-167.44,0
678401.0,0.008,0.023,0.028,38.31,-16.53,0
678406.0,0.008,0.018,0.032,28.29,-14.2,0
678411.0,0.008,-0.011,-0.02,-26.13,-157.85,0
678416.0,-0.006,0.018,-0.013,51.42,154.71,0
678421.0,-0.004,-0.008,-0.025,-18.19,171.46,0
678426.0,0.003,0.008,-0.006,51.37,-149.5,0
678431.0,0.011,-0.02,0.028,-34.35,-20.97,0
678436.0,0.013,0.004,-0.027,6.91,-154.58,0
678441.0,-0.011,-0.006,0.025,-12.09,23.37,0
678446.0,0.003,0.004,0.042,4.97,-4.66,0
678451.0,-0.018,-0.02,0.006,-46.66,71.26,0
678456.0,0.023,-0.008,-0.011,-18.4,-115.17,0
678461.0,0.03,-0.025,0.016,-36.66,-62.16,0
678466.0,0.013,-0.015,-0.015,-37.52,-139.82,0
678471.0,-0.016,-0.013,-0.011,-34.61,124.02,0
678476.0,0.011,-0.008,0.03,-14.58,-19.43,0
678481.0,-0.013,0.006,-0.001,24.4,94.45,0
678486.0,0.02,-0.035,0.004,-59.34,-79.47,0
678491.0,-0.009,-0.018,-0.025,-34.11,161.13,0
678496.0,-0.006,-0.018,0.018,-43.06,18.74,0
678501.0,-0.016,0.006,0.044,7.33,19.48,0
678506.0,0.001,0.001,-0.03,2.45,-178.0,0
678511.0,-0.016,0.011,-0.011,29.78,124.02,0
678516.0,0.001,-0.015,-0.027,-29.48,-177.83,0
678521.0,-0.023,-0.023,-0.044,-24.5,152.57,0
678526.0,-0.013,0.02,0.025,35.55,27.78,0
678531.0,0.003,-0.011,0.009,-49.28,-21.89,0
678536.0,-0.001,0.006,-0.008,36.06,170.63,0
678541.0,0.006,-0.013,-0.001,-65.67,-100.09,0
678546.0,0.008,0.03,-0.027,46.39,-163.29,0
678551.0,0.003,-0.006,-0.027,-12.08,-172.85,0
678556.0,0.027,-0.006,0.016,-10.6,-60.13,0
678561.0,-0.025,-0.008,-0.008,-17.33,108.0,0
678566.0,0.011,-0.004,0.006,-15.98,-59.93,0
678571.0,0.003,-0.032,0.004,-81.04,-42.45,0
678576.0,0.015,-0.006,0.011,-17.36,-54.63,0
678581.0,0.023,-0.006,0.001,-14.63,-86.56,0
678586.0,-0.013,-0.037,-0.042,-40.2,162.29,0
678591.0,0.013,-0.011,-0.015,-27.94,-139.82,0
678596.0,-0.03,-0.008,-0.02,-12.9,123.86,0
678601.0,-0.006,0.006,0.04,8.59,8.81,0
678606.0,-0.032,-0.001,0.018,-1.72,60.85,0
678611.0,0.001,-0.025,0.004,-81.17,-15.46,0
678616.0,-0.011,0.004,-0.008,15.02,126.94,0
678621.0,0.001,-0.008,0.001,-78.37,-37.4,0
678626.0,0.003,0.035,0.013,68.42,-14.44,0
678631.0,-0.025,-0.006,-0.015,-11.28,121.33,0
678636.0,0.03,0.011,0.009,19.31,-73.99,0
678641.0,0.006,0.008,0.052,9.25,-6.44,0
678646.0,-0.023,-0.008,0.021,-15.11,48.16,0
678651.0,0.015,0.011,-0.001,35.11,-93.85,0
678656.0,-0.018,-0.018,-0.025,-30.09,144.05,0
678661.0,0.027,-0.042,-0.008,-55.65,-106.71,0
678666.0,0.027,-0.037,0.025,-44.81,-47.26,0
678671.0,-0.018,0.013,-0.008,33.66,114.4,0
678676.0,0.001,0.004,0.023,9.1,-2.59,0
678681.0,0.023,-0.027,0.013,-46.31,-59.45,0
678686.0,-0.035,-0.027,0.006,-37.78,80.01,0
678691.0,0.001,-0.037,0.032,-48.73,-1.83,0
678696.0,0.001,0.013,-0.011,51.17,-174.42,0
678701.0,0.015,-0.011,0.04,-14.11,-21.22,0
678706.0,0.011,0.037,-0.015,63.3,-145.43,0
678711.0,0.023,-0.004,0.035,-4.83,-32.93,0
678716.0,-0.004,0.004,0.021,9.99,10.36,0
678721.0,0.006,-0.001,-0.027,-2.29,-167.98,0
678726.0,-0.006,0.001,0.044,1.63,7.87,0
678731.0,-0.006,0.008,-0.023,19.87,164.78,0
678736.0,0.013,-0.011,0.035,-16.03,-20.46,0
678741.0,0.003,0.001,-0.013,5.42,-165.22,0
678746.0,0.015,0.006,0.021,13.3,-36.91,0
678751.0,0.008,-0.011,0.006,-46.18,-53.22,0
678756.0,0.011,-0.008,-0.013,-26.31,-140.79,0
678761.0,-0.023,-0.004,-0.001,-8.71,92.59,0
678766.0,-0.004,-0.001,0.001,-15.65,70.11,0
678771.0,0.011,-0.027,0.001,-68.71,-82.71,0
678776.0,-0.023,0.008,-0.015,17.04,123.92,0
678781.0,-0.009,0.023,-0.023,43.39,159.29,0
678786.0,-0.006,-0.006,0.006,-34.2,45.0,0
678791.0,-0.037,-0.035,-0.032,-35.13,130.79,0
678796.0,-0.016,0.001,-0.001,4.63,93.77,0
678801.0,0.006,-0.03,0.006,-74.16,-43.47,0
678806.0,0.003,0.008,0.004,58.99,-42.45,0
678811.0,0.027,-0.011,-0.006,-20.91,-102.01,0
678816.0,0.013,0.02,0.006,54.85,-64.71,0
678821.0,0.025,-0.02,-0.006,-38.32,-103.13,0
678826.0,0.015,0.011,-0.013,28.3,-130.18,0
678831.0,-0.028,0.006,-0.035,7.8,141.29,0
678836.0,0.008,0.016,0.028,28.43,-16.53,0
678841.0,-0.013,0.013,0.023,26.56,30.19,0
678846.0,0.02,0.004,-0.015,8.23,-127.34,0
678851.0,-0.009,0.016,-0.015,41.61,150.99,0
678856.0,0.015,0.011,-0.015,26.49,-135.0,0
678861.0,0.006,-0.025,0.025,-43.99,-12.97,0
678866.0,-0.013,0.016,0.03,25.42,23.89,0
678871.0,0.001,0.008,-0.003,67.04,-163.18,0
678876.0,-0.018,-0.03,-0.066,-23.66,164.58,0
678881.0,0.015,-0.018,-0.051,-18.45,-163.29,0
678886.0,-0.001,-0.042,0.006,-81.44,12.45,0
678891.0,-0.001,-0.047,-0.015,-71.65,174.97,0
678896.0,-0.021,-0.037,-0.008,-59.18,111.84,0
678901.0,-0.004,-0.027,-0.008,-71.78,155.47,0
678906.0,-0.011,0.016,0.009,48.43,52.01,0
678911.0,0.015,0.001,-0.003,4.63,-102.56,0
678916.0,0.023,0.025,0.023,38.1,-44.6,0
678921.0,0.027,0.023,0.028,30.38,-44.67,0
678926.0,-0.016,-0.011,-0.039,-14.17,158.22,0
678931.0,0.008,0.032,-0.011,67.5,-142.24,0
678936.0,-0.001,-0.004,0.037,-5.38,2.08,0
678941.0,0.015,0.02,-0.003,52.32,-102.56,0
678946.0,0.008,-0.004,0.009,-16.5,-43.91,0
678951.0,0.011,-0.037,-0.013,-65.61,-140.79,0
678956.0,0.015,-0.011,0.009,-31.27,-60.99,0
678961.0,0.013,-0.023,-0.025,-38.83,-152.49,0
678966.0,0.037,0.013,-0.037,14.23,-135.0,0
678971.0,-0.018,-0.008,-0.003,-24.23,100.73,0
678976.0,0.015,0.001,0.013,3.59,-49.13,0
678981.0,-0.013,0.001,-0.023,2.79,149.45,0
678986.0,0.003,0.02,-0.006,71.69,-149.5,0
678991.0,0.001,-0.011,-0.011,-45.08,-174.42,0
678996.0,0.018,0.006,-0.015,14.45,-130.87,0
679001.0,-0.011,-0.015,-0.032,-24.5,161.22,0
679006.0,-0.011,-0.03,-0.047,-31.98,166.78,0
679011.0,-0.009,-0.025,-0.02,-48.82,157.07,0
679016.0,0.011,0.006,-0.013,19.86,-140.79,0
679021.0,0.023,0.025,0.004,47.77,-80.57,0
679026.0,-0.016,0.008,-0.037,11.9,156.95,0
679031.0,0.011,0.001,0.004,6.47,-70.53,0
679036.0,-0.001,-0.015,-0.025,-31.75,176.89,0
679041.0,0.003,-0.015,-0.049,-17.52,-175.99,0
679046.0,-0.013,0.032,0.011,61.99,50.64,0
679051.0,-0.004,0.004,0.013,14.85,15.72,0
679056.0,-0.004,0.011,-0.023,25.36,170.57,0
679061.0,0.006,0.011,-0.027,21.2,-167.98,0
679066.0,-0.001,-0.004,0.011,-17.68,7.07,0
679071.0,0.035,-0.013,-0.001,-20.74,-91.72,0
679076.0,0.018,-0.011,0.025,-19.07,-35.12,0
679081.0,-0.001,-0.011,-0.027,-21.32,177.16,0
679086.0,0.013,-0.015,-0.032,-24.05,-157.98,0
679091.0,-0.006,0.008,0.011,34.0,29.34,0
679096.0,0.025,-0.015,-0.018,-26.78,-125.47,0
679101.0,-0.016,-0.025,0.018,-46.25,40.95,0
679106.0,0.013,-0.027,-0.035,-36.63,-159.37,0
679111.0,-0.001,-0.027,-0.015,-60.61,174.97,0
679116.0,-0.035,-0.027,0.025,-32.5,54.04,0
679121.0,0.013,0.006,-0.047,7.16,-164.38,0
679126.0,-0.032,-0.015,0.018,-22.6,60.85,0
679131.0,0.003,0.004,0.016,12.85,-12.31,0
679136.0,-0.011,-0.013,0.037,-18.62,16.35,0
679141.0,-0.023,0.02,-0.013,37.8,119.59,0
679146.0,-0.004,0.006,-0.03,11.43,172.82,0
679151.0,-0.011,0.008,-0.003,36.44,107.42,0
679156.0,-0.021,-0.023,-0.008,-45.73,111.84,0
679161.0,0.018,0.013,-0.008,34.05,-114.79,0
679166.0,-0.016,-0.001,-0.056,-1.1,164.35,0
679171.0,0.018,0.008,0.028,14.41,-32.73,0
679176.0,0.011,-0.02,0.037,-27.61,-15.9,0
679181.0,0.006,-0.018,-0.006,-65.26,-135.0,0
679186.0,0.006,0.008,-0.006,45.76,-135.0,0
679191.0,0.015,0.008,0.018,19.58,-40.37,0
679196.0,0.011,-0.011,-0.018,-27.3,-149.19,0
679201.0,-0.021,-0.001,-0.023,-2.1,137.76,0
679206.0,0.049,0.001,-0.006,1.48,-96.79,0
679211.0,-0.001,-0.025,0.021,-50.64,3.78,0
679216.0,0.015,0.001,0.016,3.32,-44.41,0
679221.0,0.018,-0.006,-0.018,-13.21,-135.0,0
679226.0,-0.018,-0.015,0.023,-27.93,38.34,0
679231.0,-0.009,0.006,-0.001,35.19,96.92,0
679236.0,0.003,0.004,0.009,21.75,-21.89,0
679241.0,0.011,-0.018,0.004,-57.8,-70.53,0
679246.0,-0.006,0.006,0.006,34.91,45.0,0
679251.0,0.003,-0.018,-0.032,-28.93,-173.91,0
679256.0,-0.011,0.028,-0.008,63.65,126.94,0
679261.0,-0.018,-0.004,-0.011,-9.49,120.36,0
679266.0,0.008,-0.03,0.042,-34.86,-11.06,0
679271.0,-0.011,-0.013,-0.003,-48.8,107.42,0
679276.0,-0.004,0.004,-0.001,43.33,105.45,0
679281.0,-0.004,-0.032,-0.02,-57.51,169.48,0
679286.0,-0.028,-0.015,-0.013,-26.84,115.16,0
679291.0,-0.037,0.006,0.013,8.71,70.32,0
679296.0,0.003,-0.013,0.035,-20.48,-5.62,0
679301.0,-0.021,0.023,0.03,32.08,34.28,0
679306.0,0.008,0.011,-0.003,50.62,-112.66,0
679311.0,0.003,-0.008,-0.023,-19.97,-171.36,0
679316.0,0.003,-0.008,-0.015,-27.74,-167.44,0
679321.0,0.006,-0.011,-0.039,-15.05,-171.58,0
679326.0,-0.032,-0.013,-0.006,-21.63,100.17,0
679331.0,0.018,0.001,0.009,3.7,-64.37,0
679336.0,-0.009,-0.001,0.009,-5.29,45.0,0
679341.0,-0.011,0.001,0.011,4.72,45.0,0
679346.0,0.023,-0.015,-0.013,-30.71,-119.94,0
679351.0,-0.006,-0.004,0.042,-4.72,8.31,0
679356.0,0.015,0.023,-0.008,52.59,-118.09,0
679361.0,0.018,0.011,0.006,29.96,-70.95,0
679366.0,0.03,-0.008,0.011,-14.67,-69.83,0
679371.0,0.015,0.001,-0.015,3.35,-135.0,0
679376.0,-0.004,-0.008,-0.015,-27.64,166.31,0
679381.0,0.006,-0.006,-0.006,-35.63,-135.0,0
679386.0,0.006,0.006,-0.011,26.61,-151.24,0
679391.0,0.015,0.011,-0.051,11.45,-163.29,0
679396.0,-0.028,0.001,0.018,2.21,56.81,0
679401.0,-0.006,-0.015,-0.003,-65.55,119.18,0
679406.0,-0.009,0.018,0.023,36.42,20.45,0
679411.0,-0.004,0.018,0.016,48.13,13.42,0
679416.0,0.023,-0.008,-0.027,-13.16,-140.47,0
679421.0,-0.04,0.011,-0.027,12.69,124.61,0
679426.0,0.015,-0.02,-0.003,-52.1,-102.56,0
679431.0,0.003,-0.001,-0.013,-4.75,-165.22,0
679436.0,0.008,0.006,0.006,30.58,-53.22,0
679441.0,0.018,0.004,0.018,8.23,-44.49,0
679446.0,-0.009,-0.013,-0.008,-47.84,133.91,0
679451.0,0.02,-0.025,-0.049,-25.34,-157.57,0
679456.0,-0.001,-0.027,-0.023,-50.51,176.56,0
679461.0,0.023,-0.011,-0.032,-15.22,-144.92,0
679466.0,0.02,-0.011,0.009,-26.0,-67.07,0
679471.0,-0.018,-0.001,-0.039,-1.48,155.28,0
679476.0,-0.025,0.011,-0.006,22.69,102.97,0
679481.0,0.008,-0.02,0.004,-65.98,-65.47,0
679486.0,0.001,-0.013,-0.003,-74.68,-163.18,0
679491.0,0.027,0.028,0.032,33.03,-40.12,0
679496.0,0.015,0.006,0.009,19.0,-60.99,0
679501.0,0.023,0.006,-0.001,15.02,-92.63,0
679506.0,0.001,-0.008,-0.011,-37.89,-174.42,0
679511.0,0.025,0.028,0.001,47.82,-86.89,0
679516.0,0.006,-0.015,0.006,-61.32,-43.47,0
679521.0,-0.009,0.018,-0.032,28.46,165.13,0
679526.0,-0.032,-0.023,-0.003,-34.76,96.03,0
679531.0,0.032,-0.011,0.006,-18.09,-79.18,0
679536.0,-0.013,-0.011,0.018,-25.43,36.34,0
679541.0,-0.011,-0.02,-0.023,-38.93,154.17,0
679546.0,0.015,0.018,0.004,48.69,-76.31,0
679551.0,-0.004,0.011,-0.003,64.9,132.45,0
679556.0,-0.03,0.001,-0.008,2.34,105.28,0
679561.0,-0.009,0.006,-0.023,14.1,159.29,0
679566.0,0.003,0.028,0.018,56.27,-10.73,0
679571.0,0.013,-0.001,0.028,-2.09,-25.16,0
679576.0,-0.011,0.006,-0.006,26.09,118.05,0
679581.0,0.006,0.016,0.001,69.07,-76.89,0
679586.0,-0.001,-0.035,-0.035,-45.04,177.75,0
679591.0,0.015,-0.027,-0.001,-60.65,-93.85,0
679596.0,0.023,-0.015,-0.003,-34.13,-98.64,0
679601.0,0.015,-0.006,-0.003,-20.52,-102.56,0
679606.0,0.006,-0.025,0.011,-63.69,-28.05,0
679611.0,0.003,-0.008,-0.037,-12.61,-174.69,0
679616.0,-0.004,-0.02,-0.011,-60.96,160.54,0
679621.0,0.006,0.028,0.001,77.78,-76.89,0
679626.0,0.003,-0.001,0.006,-9.02,-29.18,0
679631.0,-0.004,0.001,0.009,7.8,23.71,0
679636.0,0.003,0.008,-0.013,32.16,-165.22,0
679641.0,-0.011,0.011,-0.044,13.43,166.09,0
679646.0,-0.009,0.016,-0.013,45.15,146.72,0
679651.0,0.008,-0.018,-0.027,-32.03,-163.29,0
679656.0,-0.018,0.016,0.011,36.47,58.89,0
679661.0,-0.013,0.02,0.018,42.25,36.34,0
679666.0,0.008,-0.02,0.006,-63.15,-53.22,0
679671.0,-0.006,-0.008,-0.008,-38.96,143.22,0
679676.0,0.003,-0.02,0.04,-26.98,-4.94,0
679681.0,0.015,-0.006,0.006,-19.6,-68.25,0
679686.0,0.003,-0.011,0.028,-20.97,-7.06,0
679691.0,0.003,-0.011,0.004,-64.57,-42.45,0
679696.0,0.027,0.006,0.009,11.94,-72.67,0
679701.0,-0.028,-0.013,-0.023,-20.12,129.2,0
679706.0,0.015,-0.008,-0.025,-15.79,-148.34,0
679711.0,0.008,-0.001,-0.023,-2.66,-160.0,0
679716.0,0.02,0.016,-0.003,37.37,-99.64,0
679721.0,0.025,-0.004,0.016,-6.78,-57.81,0
679726.0,0.003,-0.006,-0.047,-7.21,-175.78,0
679731.0,0.013,-0.03,0.001,-66.34,-84.04,0
679736.0,-0.001,0.006,0.028,12.34,2.8,0
679741.0,0.011,-0.004,-0.02,-8.75,-152.27,0
679746.0,-0.009,0.008,-0.025,17.77,161.13,0
679751.0,-0.009,-0.004,-0.018,-10.09,154.37,0
679756.0,-0.021,-0.008,-0.027,-13.64,143.16,0
679761.0,0.013,0.006,-0.032,9.92,-157.98,0
679766.0,0.003,-0.004,-0.013,-14.63,-165.22,0
679771.0,-0.028,-0.004,-0.001,-7.22,92.14,0
679776.0,-0.009,-0.006,0.016,-18.27,28.51,0
679781.0,0.001,-0.027,-0.032,-40.47,-178.15,0
679786.0,0.027,-0.018,-0.011,-31.34,-111.19,0
679791.0,-0.025,0.006,0.023,10.08,47.84,0
679796.0,0.032,-0.023,-0.027,-28.22,-130.4,0
679801.0,0.013,0.001,0.042,1.66,-17.19,0
679806.0,-0.021,-0.015,-0.008,-35.02,111.84,0
679811.0,0.02,0.011,-0.037,14.45,-151.35,0
679816.0,0.001,0.008,0.004,65.29,-15.46,0
679821.0,0.006,0.006,-0.042,8.19,-172.05,0
679826.0,-0.006,0.025,-0.003,74.41,119.18,0
679831.0,-0.013,-0.011,-0.023,-22.19,149.45,0
679836.0,0.025,0.008,-0.03,12.28,-140.0,0
679841.0,0.013,-0.004,0.006,-13.72,-64.71,0
679846.0,0.001,0.013,0.021,32.83,-2.9,0
679851.0,0.003,-0.015,-0.001,-76.96,-106.81,0
679856.0,0.011,-0.035,-0.023,-54.23,-154.83,0
679861.0,0.008,0.02,-0.008,60.36,-135.0,0
679866.0,-0.001,-0.027,0.004,-81.73,19.88,0
679871.0,-0.001,-0.013,0.025,-27.32,3.07,0
679876.0,0.011,0.008,-0.025,17.31,-156.98,0
679881.0,0.006,-0.006,-0.006,-35.63,-135.0,0
679886.0,0.02,-0.008,-0.03,-12.99,-145.85,0
679891.0,-0.001,0.001,-0.006,12.05,166.89,0
679896.0,0.015,-0.025,-0.044,-28.2,-160.76,0
679901.0,-0.016,-0.015,0.004,-43.77,76.58,0
679906.0,0.011,0.028,0.009,63.74,-51.18,0
679911.0,0.013,-0.001,0.011,-3.76,-49.95,0
679916.0,-0.009,-0.032,-0.039,-38.69,167.75,0
679921.0,0.008,0.023,-0.02,46.32,-157.85,0
679926.0,0.006,-0.008,-0.011,-34.43,-151.24,0
679931.0,-0.006,0.008,-0.058,8.18,174.0,0
679936.0,0.006,-0.027,-0.03,-42.15,-168.93,0
679941.0,-0.004,-0.006,-0.03,-11.14,172.82,0
679946.0,0.011,0.037,-0.03,49.64,-160.38,0
679951.0,0.001,-0.006,0.025,-13.13,-2.35,0
679956.0,0.035,-0.013,0.03,-15.94,-48.95,0
679961.0,0.006,0.011,0.035,17.06,-9.48,0
679966.0,-0.004,-0.032,-0.008,-74.35,155.47,0
679971.0,0.027,-0.006,-0.006,-11.92,-102.01,0
679976.0,0.003,-0.015,0.013,-48.36,-14.44,0
679981.0,0.02,-0.018,-0.013,-36.66,-122.79,0
679986.0,0.003,-0.025,-0.008,-70.43,-157.34,0
679991.0,-0.006,-0.032,-0.015,-62.78,158.25,0
679996.0,-0.009,-0.018,0.006,-59.52,54.26,0
680001.0,-0.013,0.001,-0.008,4.66,121.66,0
680006.0,-0.004,-0.001,-0.006,-9.16,147.22,0
680011.0,-0.009,-0.013,-0.018,-33.55,154.37,0
680016.0,-0.009,-0.013,0.03,-22.71,15.84,0
680021.0,0.003,0.018,0.049,20.07,-3.99,0
680026.0,-0.013,0.02,-0.025,35.82,151.92,0
680031.0,0.023,0.016,0.001,34.66,-86.56,0
680036.0,0.003,-0.008,0.001,-66.03,-68.42,0
680041.0,-0.004,-0.025,-0.003,-78.53,132.45,0
680046.0,0.018,0.02,-0.001,48.89,-93.33,0
680051.0,0.001,0.011,0.001,81.06,-37.4,0
680056.0,0.003,0.03,-0.032,42.85,-173.91,0
680061.0,-0.016,0.004,0.001,13.1,85.07,0
680066.0,0.001,-0.008,-0.013,-32.46,-175.44,0
680071.0,0.015,-0.011,0.001,-34.67,-84.96,0
680076.0,0.023,0.013,0.028,20.34,-39.2,0
680081.0,-0.001,-0.018,0.025,-35.21,3.07,0
680086.0,0.001,0.001,0.001,36.78,-37.4,0
680091.0,0.003,0.025,0.052,25.98,-3.8,0
680096.0,-0.004,-0.006,-0.049,-6.86,175.62,0
680101.0,-0.03,-0.008,0.001,-15.41,87.42,0
680106.0,-0.009,0.008,0.006,38.8,54.26,0
680111.0,0.006,-0.013,-0.02,-31.92,-163.9,0
680116.0,0.001,-0.001,-0.02,-3.16,-177.06,0
680121.0,-0.018,0.02,-0.063,17.24,164.03,0
680126.0,-0.011,-0.032,-0.03,-45.47,159.83,0
680131.0,0.003,0.018,0.001,78.44,-68.42,0
680136.0,0.003,-0.03,0.004,-80.33,-42.45,0
680141.0,-0.004,-0.013,0.03,-23.35,7.11,0
680146.0,-0.009,-0.008,0.004,-41.66,66.28,0
680151.0,-0.016,-0.011,-0.013,-27.66,129.6,0
680156.0,-0.004,-0.008,0.013,-30.94,15.72,0
680161.0,-0.004,-0.03,-0.025,-49.76,171.46,0
680166.0,0.023,0.008,0.009,19.31,-69.29,0
680171.0,-0.004,0.016,0.018,40.21,11.7,0
680176.0,0.013,-0.001,-0.013,-3.48,-135.0,0
680181.0,0.011,-0.018,-0.025,-33.37,-156.98,0
680186.0,-0.001,-0.02,0.028,-36.17,2.8,0
680191.0,-0.006,0.004,-0.003,27.55,119.18,0
680196.0,0.015,-0.018,-0.003,-48.56,-102.56,0
680201.0,-0.016,-0.008,0.006,-26.18,68.65,0
680206.0,-0.006,0.008,-0.001,53.62,99.58,0
680211.0,0.006,0.016,0.03,27.04,-10.96,0
680216.0,0.032,-0.023,-0.013,-33.16,-112.02,0
680221.0,-0.021,0.006,0.013,13.93,56.98,0
680226.0,0.02,0.006,-0.003,16.5,-99.64,0
680231.0,0.013,0.018,0.011,46.71,-49.95,0
680236.0,0.001,-0.018,-0.015,-49.19,-176.15,0
680241.0,0.006,-0.008,0.004,-50.14,-57.22,0
680246.0,0.011,-0.025,-0.003,-66.0,-107.91,0
680251.0,0.008,0.006,-0.015,19.16,-151.91,0
680256.0,0.001,0.013,-0.003,74.86,-163.18,0
680261.0,0.018,-0.001,-0.013,-2.9,-126.16,0
680266.0,-0.001,-0.006,-0.02,-16.27,176.16,0
680271.0,-0.004,-0.03,0.035,-40.4,6.14,0
680276.0,-0.006,0.008,0.006,44.23,45.0,0
680281.0,0.008,-0.015,0.016,-41.11,-27.6,0
680286.0,-0.021,0.025,-0.044,27.39,155.07,0
680291.0,-0.004,0.004,-0.02,10.14,169.48,0
680296.0,0.008,-0.006,0.004,-33.17,-65.47,0
680301.0,0.015,-0.001,0.001,-4.13,-84.96,0
680306.0,0.011,0.001,-0.02,3.2,-152.27,0
680311.0,0.023,-0.013,0.021,-23.22,-47.76,0
680316.0,-0.013,0.02,-0.011,50.17,128.53,0
680321.0,0.008,-0.001,0.023,-2.63,-19.74,0
680326.0,-0.013,-0.011,-0.023,-22.19,149.45,0
680331.0,0.015,-0.008,0.004,-27.63,-76.31,0
680336.0,-0.004,0.006,0.016,20.57,13.42,0
680341.0,-0.025,0.006,0.013,11.98,62.22,0
680346.0,-0.013,-0.013,-0.025,-24.81,151.92,0
680351.0,-0.016,0.016,-0.008,41.4,117.6,0
680356.0,0.011,0.004,-0.068,3.05,-171.14,0
680361.0,0.008,-0.004,-0.003,-21.52,-112.66,0
680366.0,-0.011,-0.004,0.018,-9.42,31.11,0
680371.0,0.047,0.001,-0.035,1.26,-126.6,0
680376.0,0.006,-0.011,0.009,-45.97,-34.3,0
680381.0,-0.004,-0.006,0.018,-17.7,11.7,0
680386.0,0.02,-0.004,0.021,-6.96,-44.55,0
680391.0,0.015,-0.001,0.004,-4.03,-76.31,0
680396.0,0.001,-0.025,0.001,-86.1,-37.4,0
680401.0,0.018,-0.025,0.023,-40.82,-37.85,0
680406.0,0.011,0.013,-0.003,49.9,-107.91,0
680411.0,-0.011,0.008,0.011,28.68,45.0,0
680416.0,-0.001,-0.011,-0.013,-39.27,174.05,0
680421.0,0.011,0.006,0.028,11.56,-20.97,0
680426.0,-0.004,-0.011,-0.054,-11.23,176.01,0
680431.0,-0.001,-0.018,-0.025,-35.55,176.89,0
680436.0,-0.006,0.023,-0.023,44.28,164.78,0
680441.0,0.023,-0.013,0.016,-25.44,-55.16,0
680446.0,0.018,-0.013,-0.042,-16.09,-156.91,0
680451.0,0.018,-0.039,0.032,-46.79,-28.72,0
680456.0,-0.009,-0.004,0.023,-8.17,20.45,0
680461.0,0.013,-0.004,-0.027,-6.61,-154.58,0
680466.0,0.001,-0.006,-0.03,-11.21,-178.0,0
680471.0,0.015,-0.023,0.018,-43.63,-40.37,0
680476.0,0.013,0.006,0.009,21.29,-56.71,0
680481.0,0.015,-0.001,0.021,-2.49,-36.91,0
680486.0,-0.004,0.025,0.011,65.38,18.93,0
680491.0,0.03,-0.02,0.035,-23.85,-40.48,0
680496.0,0.008,0.011,-0.037,16.0,-167.46,0
680501.0,0.006,-0.006,0.004,-40.44,-57.22,0
680506.0,-0.013,-0.006,0.018,-14.71,36.34,0
680511.0,-0.006,0.023,0.056,21.91,6.22,0
680516.0,-0.001,-0.03,0.013,-65.83,5.81,0
680521.0,0.011,-0.001,-0.015,-3.42,-145.43,0
680526.0,0.008,-0.006,-0.018,-16.77,-155.21,0
680531.0,0.001,0.008,-0.039,12.13,-178.49,0
680536.0,-0.03,-0.008,-0.018,-13.36,120.6,0
680541.0,-0.009,-0.011,-0.032,-17.82,165.13,0
680546.0,-0.009,0.001,-0.013,4.69,146.72,0
680551.0,-0.021,-0.018,-0.025,-28.95,140.61,0
680556.0,-0.023,0.013,-0.032,18.55,144.54,0
680561.0,0.015,0.001,0.006,4.4,-68.25,0
680566.0,-0.004,-0.02,0.035,-30.02,6.14,0
680571.0,-0.001,-0.042,0.006,-81.44,12.45,0
680576.0,0.003,0.006,-0.015,21.03,-167.44,0
680581.0,0.023,0.02,-0.001,42.1,-92.63,0
680586.0,0.001,0.016,-0.049,17.73,-178.79,0
680591.0,-0.021,-0.004,-0.008,-9.03,111.84,0
680596.0,0.018,0.004,0.009,10.54,-64.37,0
680601.0,-0.013,0.001,0.018,3.25,36.34,0
680606.0,0.011,-0.035,-0.011,-66.57,-135.0,0
680611.0,0.001,0.03,-0.003,83.19,-163.18,0
680616.0,-0.006,-0.001,0.013,-4.35,24.75,0
680621.0,0.008,0.008,-0.03,15.32,-164.56,0
680626.0,-0.028,-0.023,0.018,-34.41,56.81,0
680631.0,-0.006,0.016,0.013,46.82,24.75,0
680636.0,0.023,0.004,0.023,6.51,-44.6,0
680641.0,-0.004,0.006,-0.008,33.87,155.47,0
680646.0,-0.009,-0.02,-0.008,-59.68,133.91,0
680651.0,-0.001,-0.001,0.03,-2.12,2.58,0
680656.0,0.008,-0.013,0.021,-30.64,-21.84,0
680661.0,-0.001,0.035,-0.013,69.4,174.05,0
680666.0,0.006,-0.008,0.032,-14.12,-10.17,0
680671.0,0.001,-0.027,0.009,-72.6,-6.93,0
680676.0,-0.006,-0.013,-0.02,-31.81,163.07,0
680681.0,-0.035,-0.025,0.006,-35.28,80.01,0
680686.0,0.023,-0.004,0.018,-6.92,-51.26,0
680691.0,-0.004,0.004,-0.013,15.17,163.91,0
680696.0,-0.001,-0.001,0.037,-1.72,2.08,0
680701.0,-0.028,0.013,-0.013,23.41,115.16,0
680706.0,0.015,-0.004,-0.011,-10.63,-124.57,0
680711.0,-0.009,-0.03,-0.03,-43.94,163.99,0
680716.0,0.006,-0.004,0.009,-18.76,-34.3,0
680721.0,0.006,-0.011,-0.015,-33.0,-159.28,0
680726.0,0.013,-0.001,-0.015,-3.17,-139.82,0
680731.0,0.008,0.011,-0.025,22.43,-161.78,0
680736.0,-0.001,-0.001,-0.018,-3.58,175.64,0
680741.0,0.013,0.013,-0.008,40.73,-122.29,0
680746.0,-0.009,-0.013,-0.006,-51.7,124.3,0
680751.0,0.008,-0.018,0.009,-56.45,-43.91,0
680756.0,0.023,-0.006,0.042,-7.05,-28.24,0
680761.0,-0.006,-0.02,-0.015,-50.72,158.25,0
680766.0,0.001,-0.013,0.006,-64.54,-9.58,0
680771.0,0.023,0.006,-0.003,14.87,-98.64,0
680776.0,0.006,0.016,0.021,36.26,-15.86,0
680781.0,0.013,0.013,-0.003,44.56,-104.78,0
680786.0,-0.013,0.016,-0.023,30.82,149.45,0
680791.0,0.006,-0.025,-0.058,-23.09,-174.31,0
680796.0,0.023,0.013,0.016,25.71,-55.16,0
680801.0,-0.009,-0.006,-0.018,-16.66,154.37,0
680806.0,-0.006,-0.004,0.061,-3.27,5.73,0
680811.0,0.006,0.028,-0.02,52.73,-163.9,0
680816.0,0.008,-0.008,-0.001,-45.05,-97.19,0
680821.0,0.001,-0.008,0.001,-78.37,-37.4,0
680826.0,-0.011,0.011,0.042,14.02,14.57,0
680831.0,0.008,0.013,-0.001,57.98,-97.19,0
680836.0,0.006,0.006,0.023,14.39,-14.27,0
680841.0,0.003,-0.02,-0.027,-36.31,-172.85,0
680846.0,0.015,-0.018,-0.044,-20.93,-160.76,0
680851.0,-0.013,0.013,0.042,16.71,17.58,0
680856.0,0.001,-0.02,0.009,-67.0,-6.93,0
680861.0,-0.009,-0.013,-0.013,-40.07,146.72,0
680866.0,-0.006,-0.006,-0.015,-19.6,158.25,0
680871.0,0.006,-0.004,-0.02,-9.49,-163.9,0
680876.0,-0.006,-0.004,-0.023,-8.53,164.78,0
680881.0,-0.001,-0.004,-0.039,-5.1,178.03,0
680886.0,0.003,-0.004,0.021,-9.58,-9.5,0
680891.0,0.013,-0.032,-0.008,-64.49,-122.29,0
680896.0,-0.016,0.008,0.001,28.19,85.07,0
680901.0,0.011,0.011,0.032,17.62,-18.1,0
680906.0,0.015,0.006,0.001,21.42,-84.96,0
680911.0,0.006,0.004,-0.03,6.9,-168.93,0
680916.0,0.003,0.006,-0.015,21.03,-167.44,0
680921.0,0.013,-0.039,-0.015,-62.92,-139.82,0
680926.0,-0.009,0.008,0.025,17.58,18.65,0
680931.0,0.025,-0.001,0.023,-1.89,-47.48,0
680936.0,-0.004,-0.032,0.028,-49.08,7.71,0
680941.0,0.023,-0.011,-0.001,-25.31,-92.63,0
680946.0,-0.018,0.004,-0.013,9.35,125.68,0
680951.0,0.006,0.001,0.016,4.36,-20.33,0
680956.0,0.003,-0.001,0.004,-12.39,-42.45,0
680961.0,0.011,0.013,0.023,27.69,-24.86,0
680966.0,0.008,-0.008,-0.025,-17.52,-161.78,0
680971.0,0.039,-0.018,0.009,-23.94,-77.75,0
680976.0,-0.006,-0.037,-0.006,-77.12,133.47,0
680981.0,0.006,-0.015,-0.032,-25.35,-169.73,0
680986.0,-0.001,0.042,-0.008,78.78,170.63,0
680991.0,0.018,-0.051,-0.006,-69.98,-108.12,0
680996.0,0.006,-0.013,-0.025,-27.03,-166.87,0
681001.0,-0.006,-0.02,0.006,-66.79,45.0,0
681006.0,0.035,-0.032,0.032,-34.21,-46.77,0
681011.0,-0.016,-0.001,0.009,-3.57,61.49,0
681016.0,0.011,-0.001,0.021,-2.77,-27.36,0
681021.0,0.013,-0.008,-0.049,-9.31,-165.11,0
681026.0,-0.023,-0.018,-0.044,-19.77,152.57,0
681031.0,0.011,0.004,-0.006,16.87,-118.76,0
681036.0,0.015,-0.004,-0.018,-8.49,-139.12,0
681041.0,0.023,0.008,0.044,9.63,-26.93,0
681046.0,0.02,0.018,0.021,32.07,-44.55,0
681051.0,0.006,0.025,-0.015,56.86,-159.28,0
681056.0,-0.021,-0.02,-0.008,-42.53,111.84,0
681061.0,0.018,-0.001,0.042,-1.4,-22.94,0
681066.0,-0.009,-0.027,-0.015,-57.32,150.99,0
681071.0,-0.032,0.016,-0.003,25.59,96.03,0
681076.0,-0.009,-0.004,-0.008,-16.5,133.91,0
681081.0,0.013,-0.001,0.004,-4.72,-73.91,0
681086.0,0.006,0.013,-0.03,23.59,-168.93,0
681091.0,-0.013,-0.02,0.016,-44.52,40.29,0
681096.0,-0.011,-0.004,-0.015,-10.53,144.63,0
681101.0,-0.006,-0.018,0.011,-54.95,29.34,0
681106.0,-0.023,0.011,0.016,21.34,55.53,0
681111.0,0.008,-0.006,-0.001,-35.48,-97.19,0
681116.0,0.02,0.02,0.037,25.73,-28.45,0
681121.0,-0.037,0.004,-0.011,5.41,105.9,0
681126.0,-0.03,-0.001,-0.02,-1.77,123.86,0
681131.0,0.013,-0.015,0.023,-30.45,-29.59,0
681136.0,0.013,-0.032,-0.001,-67.96,-94.56,0
681141.0,0.011,0.016,-0.015,39.9,-145.43,0
681146.0,-0.025,0.016,-0.008,30.46,108.0,0
681151.0,-0.025,-0.006,-0.039,-7.2,147.26,0
681156.0,-0.006,0.011,-0.023,24.88,164.78,0
681161.0,0.001,-0.025,0.021,-50.66,-2.9,0
681166.0,-0.013,-0.03,-0.023,-48.7,149.45,0
681171.0,-0.006,0.011,-0.027,21.15,167.35,0
681176.0,-0.009,0.018,0.023,36.42,20.45,0
681181.0,0.003,0.011,0.009,49.7,-21.89,0
681186.0,-0.004,0.006,0.025,13.34,8.43,0
681191.0,-0.004,0.008,-0.013,32.0,163.91,0
681196.0,-0.006,-0.02,-0.006,-67.33,133.47,0
681201.0,0.023,-0.008,-0.037,-10.85,-148.57,0
681206.0,-0.001,0.011,0.006,59.89,12.45,0
681211.0,0.025,-0.013,-0.018,-23.11,-125.47,0
681216.0,-0.021,-0.011,0.001,-27.49,86.21,0
681221.0,-0.025,-0.018,-0.006,-34.55,102.97,0
681226.0,0.001,0.008,0.004,65.29,-15.46,0
681231.0,0.013,-0.008,-0.042,-10.75,-162.69,0
681236.0,-0.006,-0.011,-0.015,-32.82,158.25,0
681241.0,0.018,0.001,-0.003,4.03,-100.91,0
681246.0,0.008,-0.025,-0.023,-46.2,-160.0,0
681251.0,-0.016,0.004,-0.006,12.35,110.33,0
681256.0,-0.013,-0.001,-0.001,-4.78,94.45,0
681261.0,-0.018,0.008,0.001,24.97,85.72,0
681266.0,0.008,0.037,-0.018,62.21,-155.21,0
681271.0,-0.021,-0.027,0.021,-43.42,45.0,0
681276.0,0.025,-0.023,-0.058,-19.61,-156.88,0
681281.0,-0.006,0.008,-0.07,6.82,175.02,0
681286.0,-0.006,0.001,-0.027,2.61,167.35,0
681291.0,0.013,0.011,0.016,28.01,-39.6,0
681296.0,0.023,-0.025,-0.03,-33.85,-142.81,0
681301.0,-0.004,0.004,0.006,27.02,31.4,0
681306.0,-0.011,-0.018,0.013,-46.04,39.36,0
681311.0,0.001,0.008,0.001,78.58,-37.4,0
681316.0,0.011,-0.025,0.006,-63.92,-59.93,0
681321.0,-0.021,0.008,0.013,19.08,56.98,0
681326.0,-0.009,-0.001,-0.027,-2.23,162.67,0
681331.0,-0.011,-0.001,0.028,-2.15,21.54,0
681336.0,0.006,-0.011,0.016,-32.53,-20.33,0
681341.0,0.001,0.006,-0.023,15.02,-177.37,0
681346.0,-0.011,0.035,-0.035,43.83,162.44,0
681351.0,-0.006,0.013,-0.013,42.64,154.71,0
681356.0,0.013,-0.006,-0.003,-23.7,-104.78,0
681361.0,0.003,-0.011,0.013,-37.85,-14.44,0
681366.0,-0.018,-0.018,-0.008,-41.94,114.4,0
681371.0,0.035,0.016,-0.013,22.96,-110.63,0
681376.0,-0.023,0.001,0.032,1.84,35.19,0
681381.0,0.023,0.016,-0.013,30.97,-119.94,0
681386.0,-0.009,0.028,-0.03,41.72,163.99,0
681391.0,0.003,0.008,-0.001,67.03,-106.81,0
681396.0,0.006,0.023,0.011,61.51,-28.05,0
681401.0,0.001,0.016,-0.027,29.73,-177.83,0
681406.0,-0.004,-0.032,0.001,-82.95,70.11,0
681411.0,0.025,0.004,0.004,8.27,-81.46,0
681416.0,-0.035,0.004,-0.025,4.89,125.61,0
681421.0,0.03,-0.001,0.006,-2.11,-78.34,0
681426.0,-0.016,0.013,0.006,38.13,68.65,0
681431.0,-0.009,0.001,0.006,6.92,54.26,0
681436.0,-0.023,-0.004,-0.056,-3.32,157.79,0
681441.0,0.013,-0.018,0.032,-27.06,-21.83,0
681446.0,-0.001,-0.006,0.018,-18.01,4.28,0
681451.0,-0.03,-0.015,-0.039,-17.36,142.59,0
681456.0,-0.001,-0.02,-0.015,-52.67,174.97,0
681461.0,0.008,0.018,0.004,63.39,-65.47,0
681466.0,0.023,0.013,0.004,30.06,-80.57,0
681471.0,0.008,-0.02,-0.013,-52.8,-147.71,0
681476.0,0.02,0.001,0.009,3.33,-67.07,0
681481.0,-0.006,-0.013,-0.001,-64.54,99.58,0
681486.0,0.011,-0.018,0.03,-29.26,-19.43,0
681491.0,0.013,0.013,-0.018,31.0,-143.83,0
681496.0,-0.021,0.008,-0.063,7.25,162.04,0
681501.0,0.011,-0.02,-0.027,-34.62,-158.81,0
681506.0,-0.018,-0.018,0.004,-44.02,78.3,0
681511.0,-0.001,0.008,-0.02,22.69,176.16,0
681516.0,0.037,-0.004,0.011,-5.21,-73.52,0
681521.0,0.013,-0.008,0.016,-22.13,-39.6,0
681526.0,-0.009,0.023,-0.001,69.35,96.92,0
681531.0,-0.004,0.018,0.004,73.61,44.99,0
681536.0,0.027,-0.025,-0.006,-41.84,-102.01,0
681541.0,0.018,-0.015,0.025,-26.59,-35.12,0
681546.0,-0.006,-0.013,0.011,-46.22,29.34,0
681551.0,-0.013,0.006,-0.011,19.6,128.53,0
681556.0,0.027,0.032,-0.001,49.79,-92.17,0
681561.0,-0.076,-0.042,-0.037,-26.43,116.05,0
681566.0,0.092,0.061,0.023,32.81,-76.02,0
681571.0,-0.111,0.095,-0.116,30.47,136.13,0
681576.0,-0.076,-0.221,0.155,-52.14,26.05,0
681581.0,0.185,0.128,0.243,22.74,-37.32,0
681586.0,-0.31,0.09,-0.427,9.66,144.02,0
681591.0,0.525,0.365,0.504,26.64,-46.18,0
681596.0,0.214,-0.142,-0.044,-33.07,-101.65,0
681601.0,-0.332,-0.032,-0.063,-5.45,100.8,0
681606.0,-0.107,0.092,-0.006,40.81,93.12,0
681611.0,0.049,-0.099,0.085,-45.31,-29.88,0
681616.0,0.044,-0.166,-0.09,-59.01,-153.78,0
681621.0,0.011,0.2,0.049,75.86,-12.16,0
681626.0,0.114,-0.336,-0.161,-59.59,-144.88,0
681631.0,0.303,0.715,0.126,65.36,-67.42,0
681636.0,-0.356,-0.758,-0.202,-61.63,119.61,0
681641.0,0.624,0.157,0.104,13.94,-80.5,0
681646.0,-0.526,-0.492,0.085,-42.73,80.8,0
681651.0,0.657,0.65,0.942,29.51,-34.89,0
681656.0,-0.284,-0.32,0.095,-46.88,71.55,0
681661.0,0.03,-0.14,-0.968,-8.22,-178.24,0
681666.0,-0.428,-0.818,-0.607,-47.76,144.83,0
681671.0,0.327,0.751,0.756,42.36,-23.38,0
681676.0,-0.461,-0.377,-0.286,-34.8,121.81,0
681681.0,0.334,0.42,-0.166,48.41,-116.47,0
681686.0,-0.349,-0.729,0.27,-58.85,52.29,0
681691.0,0.343,0.631,0.202,57.71,-59.48,0
681696.0,-0.461,-0.434,-0.786,-25.48,149.62,0
681701.0,0.346,0.619,0.171,58.06,-63.64,0
681706.0,-0.36,-0.7,0.363,-53.85,44.81,0
681711.0,0.384,0.329,0.049,40.37,-82.69,0
681716.0,-0.598,-0.492,-0.755,-27.06,141.65,0
681721.0,0.398,0.492,0.145,49.25,-70.0,0
681726.0,-0.329,-0.391,0.133,-47.77,68.0,0
681731.0,0.398,0.298,0.229,32.98,-60.14,0
681736.0,-0.404,-0.37,-0.185,-39.78,114.67,0
681741.0,0.391,0.526,0.358,44.74,-47.54,0
681746.0,-0.368,-0.513,-0.238,-49.53,122.92,0
681751.0,0.367,0.344,-0.133,41.34,-109.86,0
681756.0,-0.425,-0.595,-0.157,-52.71,110.23,0
681761.0,0.43,0.506,0.303,43.93,-54.8,0
681766.0,-0.384,-0.262,-0.281,-28.82,126.18,0
681771.0,0.322,0.387,0.083,49.33,-75.58,0
681776.0,-0.396,-0.439,0.021,-47.9,87.04,0
681781.0,0.355,0.212,0.183,27.93,-62.71,0
681786.0,-0.408,-0.207,-0.37,-20.6,132.16,0
681791.0,0.365,0.289,0.188,35.1,-62.73,0
681796.0,-0.437,-0.382,-0.109,-40.29,103.97,0
681801.0,0.279,0.198,0.035,35.12,-82.87,0
681806.0,-0.332,-0.205,-0.252,-26.14,127.27,0
681811.0,0.164,0.375,0.147,59.54,-48.02,0
681816.0,-0.48,-0.415,-0.303,-36.19,122.23,0
681821.0,0.353,0.274,0.064,37.4,-79.79,0
681826.0,-0.454,-0.415,-0.181,-40.37,111.7,0
681831.0,0.315,0.571,0.219,56.12,-55.14,0
681836.0,-0.404,-0.387,-0.274,-38.4,124.17,0
681841.0,0.355,0.243,0.111,33.13,-72.58,0
681846.0,-0.262,-0.415,-0.128,-54.9,116.0,0
681851.0,0.327,0.425,0.15,49.79,-65.36,0
681856.0,-0.396,-0.324,-0.303,-33.04,127.37,0
681861.0,0.334,0.21,0.083,31.36,-76.08,0
681866.0,-0.372,-0.329,-0.09,-40.67,103.53,0
681871.0,0.25,0.334,0.131,49.82,-62.41,0
681876.0,-0.497,-0.159,-0.375,-14.34,127.0,0
681881.0,0.336,0.267,0.133,36.45,-68.41,0
681886.0,-0.356,-0.384,-0.214,-42.78,121.05,0
681891.0,0.351,0.272,0.083,37.04,-76.72,0
681896.0,-0.267,-0.217,-0.147,-35.39,118.84,0
681901.0,0.26,0.26,0.102,42.98,-68.57,0
681906.0,-0.368,-0.367,-0.317,-37.12,130.77,0
681911.0,0.154,0.289,0.078,59.08,-63.19,0
681916.0,-0.504,-0.255,-0.161,-25.71,107.76,0
681921.0,0.169,0.346,0.179,54.64,-43.37,0
681926.0,-0.423,-0.253,-0.284,-26.38,123.85,0
681931.0,0.236,0.174,-0.092,34.47,-111.33,0
681936.0,-0.308,-0.178,-0.264,-23.72,130.66,0
681941.0,0.284,0.265,0.131,40.29,-65.26,0
681946.0,-0.226,-0.233,-0.233,-35.67,135.86,0
681951.0,0.152,0.281,-0.032,61.12,-101.96,0
681956.0,-0.351,-0.355,-0.209,-41.02,120.82,0
681961.0,0.212,0.296,0.246,42.37,-40.77,0
681966.0,-0.37,-0.32,-0.233,-36.15,122.23,0
681971.0,0.152,0.336,-0.044,64.82,-106.2,0
681976.0,-0.411,-0.341,-0.286,-34.28,124.84,0
681981.0,0.195,0.329,0.078,57.47,-68.2,0
681986.0,-0.291,-0.288,-0.312,-34.04,137.02,0
681991.0,0.154,0.401,0.009,68.93,-86.83,0
681996.0,-0.358,-0.334,-0.379,-32.62,136.65,0
682001.0,0.238,0.174,-0.032,35.86,-97.69,0
682006.0,-0.444,-0.339,-0.298,-32.34,123.84,0
682011.0,0.118,0.348,0.14,62.23,-40.17,0
682016.0,-0.358,-0.164,-0.233,-20.98,123.08,0
682021.0,0.161,0.272,0.088,55.95,-61.53,0
682026.0,-0.322,-0.341,-0.226,-40.91,125.06,0
682031.0,0.212,0.207,0.111,40.89,-62.23,0
682036.0,-0.31,-0.08,-0.228,-11.75,126.37,0
682041.0,0.183,0.262,0.064,53.54,-70.83,0
682046.0,-0.265,-0.339,-0.3,-40.23,138.6,0
682051.0,0.094,0.205,-0.066,60.68,-124.83,0
682056.0,-0.334,-0.183,-0.353,-20.64,136.57,0
682061.0,0.039,0.322,0.147,64.66,-14.94,0
682066.0,-0.346,-0.255,-0.3,-29.09,130.95,0
682071.0,0.185,0.198,0.102,43.05,-61.2,0
682076.0,-0.399,-0.188,-0.262,-21.49,123.3,0
682081.0,0.085,0.308,0.21,53.69,-22.03,0
682086.0,-0.27,-0.296,-0.312,-35.63,139.21,0
682091.0,0.068,0.255,-0.145,57.92,-154.8,0
682096.0,-0.195,-0.26,-0.19,-43.61,134.24,0
682101.0,0.161,0.31,0.183,51.77,-41.37,0
682106.0,-0.15,-0.343,-0.286,-46.78,152.35,0
682111.0,0.252,0.329,0.214,44.83,-49.65,0
682116.0,-0.243,-0.264,0.032,-47.15,82.39,0
682121.0,0.075,0.356,-0.023,77.54,-106.7,0
682126.0,-0.346,-0.317,-0.446,-29.31,142.21,0
682131.0,0.092,0.253,0.109,60.54,-40.15,0
682136.0,-0.179,-0.193,-0.094,-43.65,117.87,0
682141.0,0.08,0.257,0.138,58.24,-30.15,0
682146.0,-0.174,-0.224,-0.121,-46.61,124.8,0
682151.0,0.521,0.394,0.152,35.99,-73.7,0
682156.0,-0.25,-0.181,0.004,-35.82,89.14,0
682161.0,-0.016,0.334,0.298,48.2,3.02,0
682166.0,-0.224,-0.257,0.056,-48.08,75.86,0
682171.0,0.14,0.301,0.09,61.04,-57.26,0
682176.0,-0.262,-0.365,-0.109,-52.12,112.52,0
682181.0,0.073,0.382,0.226,58.09,-17.84,0
682186.0,-0.226,-0.394,0.018,-60.02,85.43,0
682191.0,0.466,0.375,0.176,36.98,-69.28,0
682196.0,-0.198,-0.504,-0.243,-58.14,140.85,0
682201.0,0.13,0.459,0.023,73.9,-80.03,0
682206.0,-0.119,-0.351,-0.075,-68.16,122.38,0
682211.0,0.123,0.423,0.157,64.73,-38.11,0
682216.0,-0.09,-0.59,-0.116,-76.03,142.2,0
682221.0,0.035,0.437,0.116,74.49,-16.55,0
682226.0,-0.19,-0.466,-0.078,-66.16,112.18,0
682231.0,0.451,0.494,0.219,44.59,-64.08,0
682236.0,-0.351,-0.547,-0.044,-57.11,97.17,0
682241.0,0.489,0.468,0.143,42.56,-73.76,0
682246.0,-0.332,-0.485,-0.063,-55.13,100.8,0
682251.0,0.425,0.521,0.267,46.06,-57.84,0
682256.0,-0.384,-0.612,-0.013,-57.83,91.94,0
682261.0,0.408,0.454,0.155,46.12,-69.25,0
682266.0,-0.42,-0.466,-0.157,-46.07,110.44,0
682271.0,0.454,0.451,0.107,44.09,-76.76,0
682276.0,-0.329,-0.614,-0.142,-59.7,113.37,0
682281.0,0.516,0.49,0.277,39.92,-61.79,0
682286.0,-0.25,-0.458,0.066,-60.54,75.23,0
682291.0,0.41,0.518,0.15,49.88,-69.95,0
682296.0,-0.454,-0.604,-0.291,-48.28,122.64,0
682301.0,0.375,0.408,0.126,45.94,-71.43,0
682306.0,-0.401,-0.36,0.068,-41.51,80.33,0
682311.0,0.351,0.408,0.107,48.09,-73.07,0
682316.0,-0.466,-0.487,-0.334,-40.36,125.63,0
682321.0,0.501,0.372,0.19,34.77,-69.2,0
682326.0,-0.296,-0.456,0.133,-54.57,65.79,0
682331.0,0.42,0.466,0.236,44.03,-60.67,0
682336.0,-0.353,-0.53,-0.25,-50.78,125.29,0
682341.0,0.379,0.377,0.085,44.13,-77.35,0
682346.0,-0.411,-0.478,-0.118,-48.17,106.07,0
682351.0,0.327,0.449,0.078,53.21,-76.57,0
682356.0,-0.447,-0.434,-0.185,-41.94,112.54,0
682361.0,0.387,0.348,0.246,37.27,-57.57,0
682366.0,-0.392,-0.454,-0.035,-49.09,95.04,0
682371.0,0.284,0.377,0.09,51.74,-72.4,0
682376.0,-0.38,-0.451,-0.3,-42.99,128.35,0
682381.0,0.341,0.296,0.135,38.87,-68.34,0
682386.0,-0.291,-0.317,-0.085,-46.29,106.25,0
682391.0,0.394,0.277,0.147,33.35,-69.47,0
682396.0,-0.38,-0.442,-0.217,-45.3,119.7,0
682401.0,0.511,0.389,0.159,36.02,-72.68,0
682406.0,-0.274,-0.379,-0.037,-53.89,97.67,0
682411.0,0.418,0.413,0.202,41.67,-64.14,0
682416.0,-0.334,-0.513,-0.094,-55.93,105.78,0
682421.0,0.36,0.375,0.164,43.44,-65.5,0
682426.0,-0.48,-0.411,-0.291,-36.18,121.19,0
682431.0,0.252,0.356,0.085,53.16,-71.36,0
682436.0,-0.461,-0.422,-0.171,-40.67,110.35,0
682441.0,0.334,0.382,0.183,45.08,-61.23,0
682446.0,-0.365,-0.439,-0.262,-44.34,125.65,0
682451.0,0.336,0.406,0.04,50.17,-83.27,0
682456.0,-0.43,-0.573,-0.2,-50.41,114.92,0
682461.0,0.463,0.375,0.174,37.15,-69.44,0
682466.0,-0.36,-0.351,-0.238,-39.07,123.44,0
682471.0,0.264,0.444,0.102,57.47,-68.92,0
682476.0,-0.396,-0.432,-0.14,-45.79,109.44,0
682481.0,0.264,0.222,0.059,39.28,-77.46,0
682486.0,-0.432,-0.403,-0.324,-36.74,126.87,0
682491.0,0.358,0.43,0.272,43.73,-52.77,0
682496.0,-0.404,-0.434,-0.09,-46.42,102.52,0
682501.0,0.355,0.38,-0.023,46.83,-93.64,0
682506.0,-0.332,-0.504,-0.331,-47.06,134.97,0
682511.0,0.394,0.494,0.202,48.16,-62.78,0
682516.0,-0.372,-0.432,-0.07,-48.74,100.71,0
682521.0,0.296,0.372,0.023,51.48,-85.57,0
682526.0,-0.392,-0.408,-0.31,-39.26,128.36,0
682531.0,0.31,0.336,0.119,45.4,-69.05,0
682536.0,-0.442,-0.281,-0.171,-30.69,111.16,0
682541.0,0.236,0.212,0.111,39.11,-64.68,0
682546.0,-0.346,-0.241,-0.173,-31.85,116.61,0
682551.0,0.262,0.214,0.078,38.1,-73.43,0
682556.0,-0.432,-0.296,-0.322,-28.74,126.67,0
682561.0,0.279,0.289,0.145,42.56,-62.52,0
682566.0,-0.363,-0.248,-0.161,-31.95,113.98,0
682571.0,0.284,0.332,0.025,49.36,-84.9,0
682576.0,-0.394,-0.346,-0.281,-35.55,125.51,0
682581.0,0.272,0.267,0.135,41.34,-63.5,0
682586.0,-0.31,-0.274,-0.087,-40.38,105.71,0
682591.0,0.243,0.377,0.047,56.74,-79.08,0
682596.0,-0.423,-0.375,-0.312,-35.48,126.45,0
682601.0,0.286,0.245,0.116,38.49,-67.87,0
682606.0,-0.353,-0.327,-0.09,-41.87,104.23,0
682611.0,0.272,0.396,0.054,55.06,-78.75,0
682616.0,-0.451,-0.329,-0.473,-26.73,136.32,0
682621.0,0.236,0.205,-0.003,40.99,-90.83,0
682626.0,-0.341,-0.274,-0.102,-37.58,106.58,0
682631.0,0.284,0.411,0.2,49.8,-54.79,0
682636.0,-0.444,-0.3,-0.331,-28.46,126.72,0
682641.0,0.185,0.269,-0.082,53.02,-113.97,0
682646.0,-0.274,-0.327,-0.207,-43.56,127.03,0
682651.0,0.205,0.296,0.114,51.64,-60.89,0
682656.0,-0.497,-0.185,-0.375,-16.6,127.0,0
682661.0,0.176,0.222,-0.011,51.51,-93.45,0
682666.0,-0.303,-0.272,-0.243,-34.98,128.71,0
682671.0,0.171,0.32,0.097,58.4,-60.41,0
682676.0,-0.428,-0.248,-0.269,-26.12,122.2,0
682681.0,0.2,0.358,0.174,53.52,-48.98,0
682686.0,-0.293,-0.346,-0.307,-39.14,136.34,0
682691.0,0.276,0.25,-0.13,39.32,-115.25,0
682696.0,-0.346,-0.202,-0.231,-25.92,123.71,0
682701.0,0.092,0.169,0.059,57.11,-57.41,0
682706.0,-0.353,-0.26,-0.327,-28.36,132.76,0
682711.0,0.126,0.123,0.176,29.7,-35.48,0
682716.0,-0.432,-0.221,-0.195,-25.02,114.27,0
682721.0,0.149,0.272,0.088,57.49,-59.64,0
682726.0,-0.337,-0.37,-0.339,-37.76,135.18,0
682731.0,0.19,0.308,0.001,58.28,-89.59,0
682736.0,-0.231,-0.212,-0.224,-33.36,134.06,0
682741.0,0.226,0.147,0.1,30.81,-66.24,0
682746.0,-0.1,-0.226,0.018,-65.9,79.68,0
682751.0,0.312,0.21,0.121,32.04,-68.81,0
682756.0,-0.38,-0.094,0.042,-13.9,83.68,0
682761.0,0.183,0.212,0.27,33.05,-34.18,0
682766.0,-0.394,-0.181,-0.02,-24.61,92.93,0
682771.0,0.154,0.157,0.202,31.65,-37.3,0
682776.0,-0.279,-0.238,-0.087,-39.16,107.36,0
682781.0,0.07,0.257,0.104,63.94,-34.04,0
682786.0,-0.155,-0.284,-0.023,-61.15,98.31,0
682791.0,0.473,0.245,0.085,27.07,-79.79,0
682796.0,-0.183,-0.418,-0.173,-58.86,133.41,0
682801.0,0.097,0.377,0.095,70.25,-45.62,0
682806.0,-0.274,-0.298,0.08,-46.19,73.67,0
682811.0,0.142,0.15,0.131,37.78,-47.44,0
682816.0,-0.305,-0.308,-0.027,-45.09,95.12,0
682821.0,0.109,0.339,0.21,55.12,-27.42,0
682826.0,-0.243,-0.324,0.023,-53.02,84.62,0
682831.0,0.315,0.298,0.066,42.84,-78.15,0
682836.0,-0.25,-0.411,-0.078,-57.44,107.23,0
682841.0,0.437,0.401,0.183,40.26,-67.23,0
682846.0,-0.27,-0.348,0.073,-51.28,74.81,0
682851.0,0.456,0.291,0.123,31.63,-74.85,0
682856.0,-0.351,-0.446,-0.068,-51.32,100.98,0
682861.0,0.494,0.368,0.255,33.46,-62.7,0
682866.0,-0.313,-0.329,0.078,-45.61,75.99,0
682871.0,0.387,0.401,0.123,44.67,-72.28,0
682876.0,-0.186,-0.564,-0.099,-69.52,118.11,0
682881.0,0.535,0.459,0.198,38.8,-69.72,0
682886.0,-0.219,-0.516,-0.013,-66.94,93.4,0
682891.0,0.466,0.463,0.126,43.86,-74.87,0
682896.0,-0.37,-0.571,-0.023,-57.0,93.49,0
682901.0,0.482,0.382,0.337,33.0,-55.09,0
682906.0,-0.358,-0.468,0.092,-51.68,75.54,0
682911.0,0.353,0.38,0.159,44.42,-65.7,0
682916.0,-0.413,-0.475,0.018,-48.97,87.49,0
682921.0,0.54,0.384,0.241,33.04,-65.96,0
682926.0,-0.267,-0.389,-0.039,-55.23,98.38,0
682931.0,0.456,0.382,0.088,39.44,-79.13,0
682936.0,-0.234,-0.458,-0.073,-61.91,107.32,0
682941.0,0.59,0.394,0.25,31.58,-67.01,0
682946.0,-0.332,-0.604,0.083,-60.5,75.99,0
682951.0,0.41,0.581,0.284,49.32,-55.33,0
682956.0,-0.368,-0.595,-0.111,-57.15,106.82,0
682961.0,0.504,0.494,0.255,41.21,-63.14,0
682966.0,-0.392,-0.547,-0.027,-54.33,94.0,0
682971.0,0.418,0.483,0.15,47.4,-70.27,0
682976.0,-0.284,-0.513,-0.19,-56.36,123.82,0
682981.0,0.437,0.459,0.159,44.6,-69.95,0
682986.0,-0.356,-0.475,-0.123,-51.62,109.1,0
682991.0,0.43,0.384,0.066,41.49,-81.27,0
682996.0,-0.356,-0.578,-0.166,-55.82,115.05,0
683001.0,0.408,0.494,0.265,45.47,-57.03,0
683006.0,-0.444,-0.454,-0.044,-45.46,95.67,0
683011.0,0.377,0.449,0.231,45.44,-58.48,0
683016.0,-0.325,-0.621,-0.166,-59.59,117.12,0
683021.0,0.444,0.473,0.186,44.5,-67.3,0
683026.0,-0.313,-0.494,-0.011,-57.68,91.94,0
683031.0,0.487,0.466,0.167,42.14,-71.12,0
683036.0,-0.392,-0.652,-0.257,-54.31,123.3,0
683041.0,0.533,0.478,0.284,38.37,-61.94,0
683046.0,-0.329,-0.43,0.157,-49.66,64.52,0
683051.0,0.327,0.423,0.198,47.91,-58.82,0
683056.0,-0.382,-0.571,-0.296,-49.77,127.72,0
683061.0,0.451,0.305,0.083,33.65,-79.61,0
683066.0,-0.341,-0.332,-0.061,-43.72,100.11,0
683071.0,0.42,0.442,0.174,44.19,-67.53,0
683076.0,-0.382,-0.535,-0.145,-52.64,110.74,0
683081.0,0.444,0.37,0.114,38.91,-75.61,0
683086.0,-0.447,-0.432,-0.291,-39.03,123.06,0
683091.0,0.339,0.468,0.181,50.65,-61.88,0
683096.0,-0.449,-0.466,-0.037,-45.94,94.7,0
683101.0,0.327,0.324,0.14,42.39,-66.77,0
683106.0,-0.346,-0.42,-0.19,-46.77,118.79,0
683111.0,0.291,0.389,0.066,52.54,-77.21,0
683116.0,-0.514,-0.454,-0.296,-37.43,119.91,0
683121.0,0.501,0.387,0.155,36.39,-72.87,0
683126.0,-0.365,-0.442,-0.171,-47.6,115.09,0
683131.0,0.413,0.471,0.061,48.43,-81.57,0
683136.0,-0.454,-0.497,-0.217,-44.65,115.5,0
683141.0,0.394,0.396,0.267,39.8,-55.84,0
683146.0,-0.389,-0.43,-0.195,-44.63,116.61,0
683151.0,0.31,0.372,0.028,50.12,-84.89,0
683156.0,-0.413,-0.525,-0.128,-50.54,107.2,0
683161.0,0.375,0.365,0.217,40.16,-59.93,0
683166.0,-0.37,-0.399,-0.219,-42.83,120.61,0
683171.0,0.394,0.461,0.092,48.74,-76.8,0
683176.0,-0.416,-0.475,-0.164,-46.77,111.52,0
683181.0,0.413,0.387,0.143,41.52,-70.94,0
683186.0,-0.449,-0.458,-0.291,-40.59,122.92,0
683191.0,0.269,0.389,0.011,55.3,-87.67,0
683196.0,-0.459,-0.372,-0.197,-36.7,113.28,0
683201.0,0.243,0.346,0.078,53.61,-72.2,0
683206.0,-0.327,-0.401,-0.149,-48.12,114.57,0
683211.0,0.343,0.377,0.104,46.42,-73.1,0
683216.0,-0.475,-0.446,-0.178,-41.33,110.55,0
683221.0,0.387,0.301,0.102,36.94,-75.23,0
683226.0,-0.375,-0.336,-0.2,-38.37,118.05,0
683231.0,0.312,0.324,0.011,46.08,-87.99,0
683236.0,-0.43,-0.281,-0.286,-28.58,123.63,0
683241.0,0.324,0.188,0.102,28.95,-72.55,0
683246.0,-0.329,-0.332,-0.224,-39.78,124.18,0
683251.0,0.284,0.432,0.104,55.05,-69.8,0
683256.0,-0.495,-0.415,-0.262,-36.58,117.91,0
683261.0,0.274,0.341,0.111,49.08,-67.86,0
683266.0,-0.399,-0.334,-0.236,-35.79,120.58,0
683271.0,0.245,0.368,0.011,56.26,-87.45,0
683276.0,-0.375,-0.382,-0.145,-43.54,111.11,0
683281.0,0.322,0.289,0.207,37.01,-57.22,0
683286.0,-0.308,-0.267,-0.118,-38.98,111.03,0
683291.0,0.36,0.248,0.152,32.37,-67.09,0
683296.0,-0.38,-0.267,-0.24,-30.7,122.35,0
683301.0,0.262,0.224,0.126,37.61,-64.34,0
683306.0,-0.291,-0.243,-0.236,-32.97,129.0,0
683311.0,0.248,-0.078,0.025,-17.34,-84.17,0
683316.0,-0.406,-0.317,-0.276,-32.85,124.25,0
683321.0,0.181,0.229,0.018,51.57,-84.27,0
683326.0,-0.38,-0.293,-0.264,-32.37,124.86,0
683331.0,0.276,0.308,0.126,45.38,-65.52,0
683336.0,-0.562,-0.26,-0.327,-21.79,120.18,0
683341.0,0.219,0.286,-0.094,50.2,-113.33,0
683346.0,-0.329,-0.403,-0.358,-39.67,137.37,0
683351.0,0.3,0.001,0.217,0.2,-54.17,0
683356.0,-0.416,-0.334,0.054,-38.55,82.59,0
683361.0,0.197,0.31,0.111,53.84,-60.54,0
683366.0,-0.382,-0.336,0.102,-40.38,75.06,0
683371.0,0.25,0.303,0.14,46.58,-60.72,0
683376.0,-0.387,-0.262,0.111,-33.07,73.92,0
683381.0,0.164,0.269,0.126,52.52,-52.47,0
683386.0,-0.279,-0.231,-0.049,-39.18,99.94,0
683391.0,0.288,-0.013,0.004,-2.6,-89.25,0
683396.0,-0.313,-0.25,0.037,-38.47,83.2,0
683401.0,0.173,0.219,0.059,50.12,-71.26,0
683406.0,-0.26,-0.106,0.121,-20.37,65.03,0
683411.0,0.219,0.013,0.147,2.87,-56.05,0
683416.0,-0.442,-0.185,-0.054,-22.62,96.93,0
683421.0,0.149,0.102,0.123,27.71,-50.44,0
683426.0,-0.344,-0.114,0.157,-16.74,65.45,0
683431.0,0.193,0.123,0.183,24.89,-46.41,0
683436.0,-0.293,-0.245,-0.035,-39.7,96.72,0
683441.0,0.109,0.234,0.064,61.65,-59.68,0
683446.0,-0.222,-0.219,0.076,-43.08,71.17,0
683451.0,0.341,0.092,0.179,13.48,-62.37,0
683456.0,-0.258,-0.332,-0.035,-51.91,97.64,0
683461.0,0.41,0.296,0.123,34.61,-73.26,0
683466.0,-0.394,-0.157,-0.08,-21.3,101.48,0
683471.0,0.31,0.241,0.08,36.94,-75.46,0
683476.0,-0.344,-0.415,-0.066,-49.88,100.82,0
683481.0,0.293,0.308,0.133,43.71,-65.59,0
683486.0,-0.322,-0.291,-0.049,-41.75,98.63,0
683491.0,0.317,0.234,-0.042,36.14,-97.5,0
683496.0,-0.31,-0.449,-0.099,-54.03,107.73,0
683501.0,0.521,0.425,0.195,37.4,-69.44,0
683506.0,-0.258,-0.339,0.088,-51.23,71.22,0
683511.0,0.406,0.329,0.126,37.79,-72.76,0
683516.0,-0.248,-0.432,-0.011,-60.13,92.45,0
683521.0,0.358,0.344,0.152,41.47,-66.96,0
683526.0,-0.296,-0.248,0.016,-39.9,86.96,0
683531.0,0.365,0.202,0.198,25.99,-61.56,0
683536.0,-0.286,-0.367,0.159,-48.28,60.89,0
683541.0,0.492,0.296,0.222,28.73,-65.74,0
683546.0,-0.327,-0.305,-0.109,-41.53,108.4,0
683551.0,0.43,0.32,0.116,35.69,-74.85,0
683556.0,-0.286,-0.552,-0.006,-62.57,91.17,0
683561.0,0.537,0.432,0.25,36.1,-65.02,0
683566.0,-0.308,-0.406,0.011,-52.8,87.97,0
683571.0,0.372,0.377,0.176,42.49,-64.67,0
683576.0,-0.308,-0.444,-0.013,-55.25,92.42,0
683581.0,0.43,0.353,0.143,37.97,-71.64,0
683586.0,-0.463,-0.358,-0.066,-37.4,98.07,0
683591.0,0.437,0.322,0.143,35.03,-71.92,0
683596.0,-0.377,-0.528,-0.106,-53.4,105.75,0
683601.0,0.528,0.466,0.222,39.13,-67.22,0
683606.0,-0.253,-0.518,0.066,-63.25,75.36,0
683611.0,0.511,0.427,0.26,36.71,-63.04,0
683616.0,-0.246,-0.53,0.035,-64.93,81.92,0
683621.0,0.47,0.533,0.26,44.76,-61.07,0
683626.0,-0.303,-0.37,0.018,-50.62,86.58,0
683631.0,0.346,0.324,0.09,42.24,-75.42,0
683636.0,-0.315,-0.569,-0.061,-60.56,100.94,0
683641.0,0.477,0.449,0.255,39.67,-61.88,0
683646.0,-0.356,-0.413,-0.061,-48.85,99.71,0
683651.0,0.36,0.471,0.049,52.31,-82.21,0
683656.0,-0.36,-0.6,-0.099,-58.06,105.39,0
683661.0,0.499,0.559,0.234,45.42,-64.92,0
683666.0,-0.353,-0.468,-0.111,-51.64,107.47,0
683671.0,0.473,0.423,0.159,40.27,-71.37,0
683676.0,-0.363,-0.65,-0.07,-60.37,100.99,0
683681.0,0.47,0.413,0.121,40.38,-75.56,0
683686.0,-0.332,-0.353,-0.121,-45.0,110.0,0
683691.0,0.389,0.399,0.114,44.54,-73.68,0
683696.0,-0.461,-0.571,-0.073,-50.73,98.98,0
683701.0,0.367,0.43,0.135,47.67,-69.76,0
683706.0,-0.42,-0.506,-0.13,-49.0,107.23,0
683711.0,0.372,0.502,0.222,49.19,-59.22,0
683716.0,-0.399,-0.607,-0.133,-55.29,108.41,0
683721.0,0.473,0.483,0.123,44.64,-75.36,0
683726.0,-0.303,-0.444,-0.13,-53.39,113.27,0
683731.0,0.437,0.439,0.15,43.58,-71.07,0
683736.0,-0.339,-0.676,-0.13,-61.77,111.03,0
683741.0,0.506,0.504,0.246,41.86,-64.12,0
683746.0,-0.356,-0.513,0.035,-55.16,84.4,0
683751.0,0.504,0.54,0.298,42.68,-59.38,0
683756.0,-0.475,-0.717,-0.14,-55.35,106.4,0
683761.0,0.473,0.571,0.128,49.38,-74.82,0
683766.0,-0.313,-0.502,0.006,-58.06,88.87,0
683771.0,0.434,0.538,0.255,46.86,-59.57,0
683776.0,-0.253,-0.604,-0.09,-66.08,109.52,0
683781.0,0.497,0.368,0.176,34.9,-70.47,0
683786.0,-0.334,-0.367,-0.039,-47.52,96.72,0
683791.0,0.384,0.368,0.116,42.49,-73.16,0
683796.0,-0.439,-0.422,-0.217,-40.77,116.23,0
683801.0,0.42,0.305,0.126,34.85,-73.32,0
683806.0,-0.428,-0.43,-0.2,-42.32,115.04,0
683811.0,0.329,0.456,-0.003,54.2,-90.6,0
683816.0,-0.439,-0.564,-0.226,-48.76,117.22,0
683821.0,0.53,0.454,0.303,36.62,-60.25,0
683826.0,-0.406,-0.439,-0.154,-45.33,110.81,0
683831.0,0.353,0.406,-0.003,48.99,-90.56,0
683836.0,-0.327,-0.48,-0.092,-54.71,105.72,0
683841.0,0.403,0.351,0.274,35.73,-55.78,0
683846.0,-0.356,-0.384,-0.039,-47.03,96.31,0
683851.0,0.382,0.413,0.157,45.02,-67.65,0
683856.0,-0.38,-0.47,-0.118,-49.79,107.31,0
683861.0,0.418,0.317,0.2,34.42,-64.4,0
683866.0,-0.298,-0.346,-0.128,-46.83,113.22,0
683871.0,0.372,0.38,-0.13,43.91,-109.3,0
683876.0,-0.399,-0.494,-0.116,-49.96,106.21,0
683881.0,0.446,0.353,0.21,35.61,-64.84,0
683886.0,-0.437,-0.37,-0.286,-35.3,123.19,0
683891.0,0.284,0.418,0.08,54.8,-74.18,0
683896.0,-0.466,-0.47,0.004,-45.28,89.54,0
683901.0,0.272,0.286,0.123,43.81,-65.55,0
683906.0,-0.351,-0.267,-0.367,-27.71,136.31,0
683911.0,0.336,-0.2,0.059,-30.35,-80.08,0
683916.0,-0.375,-0.43,-0.104,-47.84,105.5,0
683921.0,0.418,0.334,0.174,36.45,-67.41,0
683926.0,-0.255,-0.343,-0.217,-45.75,130.32,0
683931.0,0.331,0.475,0.049,54.82,-81.55,0
683936.0,-0.521,-0.499,-0.183,-42.11,109.36,0
683941.0,0.312,0.317,0.135,42.99,-66.55,0
683946.0,-0.389,-0.329,-0.197,-37.02,116.89,0
683951.0,0.178,-0.123,0.013,-34.59,-85.72,0
683956.0,-0.485,-0.494,-0.279,-41.47,119.89,0
683961.0,0.36,0.293,-0.039,39.0,-96.23,0
683966.0,-0.351,-0.286,0.068,-38.66,78.97,0
683971.0,0.384,0.451,0.076,49.07,-78.87,0
683976.0,-0.435,-0.411,0.03,-43.29,86.04,0
683981.0,0.281,0.291,-0.08,44.87,-105.89,0
683986.0,-0.305,-0.391,0.085,-50.99,74.42,0
683991.0,0.181,-0.075,0.1,-20.07,-61.14,0
683996.0,-0.42,-0.339,0.013,-38.85,88.18,0
684001.0,0.319,-0.013,-0.044,-2.32,-97.87,0
684006.0,-0.322,-0.023,0.03,-4.01,84.66,0
684011.0,0.231,-0.063,0.073,-14.66,-72.41,0
684016.0,-0.408,0.075,0.078,10.29,79.19,0
684021.0,0.2,0.085,0.066,22.02,-71.72,0
684026.0,-0.384,-0.09,0.095,-12.77,76.16,0
684031.0,0.238,-0.075,0.009,-17.55,-87.95,0
684036.0,-0.437,-0.011,0.035,-1.4,85.44,0
684041.0,0.293,-0.006,0.107,-1.08,-70.0,0
684046.0,-0.174,0.032,0.025,10.46,81.72,0
684051.0,0.284,-0.061,0.018,-12.11,-86.34,0
684056.0,-0.234,0.092,-0.006,21.55,91.43,0
684061.0,0.296,0.049,0.119,8.78,-68.12,0
684066.0,-0.229,-0.063,0.047,-15.18,78.43,0
684071.0,0.243,-0.047,0.009,-10.86,-87.99,0
684076.0,-0.195,-0.109,-0.087,-26.97,114.07,0
684081.0,0.255,0.181,0.059,34.66,-77.0,0
684086.0,-0.248,-0.162,0.044,-32.67,79.84,0
684091.0,0.281,0.092,0.009,18.16,-88.26,0
684096.0,-0.176,-0.037,0.018,-11.81,84.13,0
684101.0,0.379,0.102,0.138,14.16,-70.03,0
684106.0,-0.344,-0.066,-0.027,-10.8,94.55,0
684111.0,0.264,-0.092,0.004,-19.2,-89.19,0
684116.0,-0.236,0.075,0.035,17.56,81.59,0
684121.0,0.264,0.097,0.143,17.9,-61.66,0
684126.0,-0.167,-0.085,0.047,-26.14,74.29,0
684131.0,0.233,-0.006,0.03,-1.44,-82.65,0
684136.0,-0.171,-0.288,0.016,-59.18,84.76,0
684141.0,0.446,0.279,0.198,29.75,-66.11,0
684146.0,-0.212,-0.133,0.128,-28.19,58.83,0
684151.0,0.437,0.152,0.15,18.23,-71.07,0
684156.0,-0.145,-0.324,-0.047,-64.85,107.79,0
684161.0,0.458,0.171,0.097,20.08,-78.04,0
684166.0,-0.332,-0.236,0.121,-33.73,69.95,0
684171.0,0.346,0.296,0.205,36.35,-59.36,0
684176.0,-0.334,-0.293,0.059,-40.83,80.02,0
684181.0,0.353,0.198,0.171,26.73,-64.11,0
684186.0,-0.291,-0.224,-0.018,-37.5,93.5,0
684191.0,0.346,0.217,0.114,30.77,-71.77,0
684196.0,-0.212,-0.284,0.052,-52.42,76.31,0
684201.0,0.509,0.234,0.152,23.74,-73.34,0
684206.0,-0.224,-0.358,0.023,-57.82,84.16,0
684211.0,0.489,0.277,0.181,27.93,-69.71,0
684216.0,-0.202,-0.293,0.042,-54.81,78.26,0
684221.0,0.444,0.32,0.193,33.44,-66.52,0
684226.0,-0.291,-0.279,0.088,-42.53,73.26,0
684231.0,0.37,0.159,0.207,20.6,-60.73,0
684236.0,-0.341,-0.353,0.013,-45.95,87.76,0
684241.0,0.468,0.415,0.193,39.38,-67.6,0
684246.0,-0.305,-0.415,0.009,-53.66,88.4,0
684251.0,0.418,0.313,0.037,36.7,-84.9,0
684256.0,-0.26,-0.442,0.061,-58.84,76.75,0
684261.0,0.468,0.401,0.262,36.79,-60.72,0
684266.0,-0.344,-0.401,-0.061,-48.96,100.05,0
684271.0,0.379,0.353,0.102,41.97,-74.96,0
684276.0,-0.272,-0.502,0.076,-60.63,74.47,0
684281.0,0.485,0.506,0.246,42.99,-63.13,0
684286.0,-0.329,-0.439,-0.087,-52.2,104.83,0
684291.0,0.456,0.37,0.164,37.36,-70.2,0
684296.0,-0.32,-0.537,0.021,-59.19,86.33,0
684301.0,0.664,0.427,0.121,32.34,-79.67,0
684306.0,-0.234,-0.401,-0.121,-56.74,117.33,0
684311.0,0.305,0.327,0.229,40.6,-53.13,0
684316.0,-0.284,-0.528,0.056,-61.26,78.76,0
684321.0,0.466,0.413,0.25,38.01,-61.73,0
684326.0,-0.38,-0.415,0.023,-47.52,86.55,0
684331.0,0.324,0.399,0.131,48.76,-68.06,0
684336.0,-0.341,-0.499,-0.214,-51.09,122.1,0
684341.0,0.463,0.408,0.08,40.98,-80.16,0
684346.0,-0.279,-0.363,0.109,-50.43,68.65,0
684351.0,0.466,0.358,0.25,34.11,-61.73,0
684356.0,-0.341,-0.597,-0.085,-59.51,103.96,0
684361.0,0.468,0.509,0.083,46.96,-79.97,0
684366.0,-0.382,-0.303,-0.032,-38.3,94.81,0
684371.0,0.466,0.382,0.2,37.01,-66.74,0
684376.0,-0.384,-0.628,-0.003,-58.54,90.51,0
684381.0,0.616,0.466,0.317,33.89,-62.75,0
684386.0,-0.387,-0.461,-0.001,-49.99,90.15,0
684391.0,0.427,0.487,0.064,48.45,-81.53,0
684396.0,-0.36,-0.645,-0.061,-60.46,99.59,0
684401.0,0.525,0.478,0.303,38.23,-60.02,0
684406.0,-0.267,-0.454,-0.013,-59.48,92.79,0
684411.0,0.367,0.449,0.068,50.23,-79.45,0
684416.0,-0.31,-0.535,-0.114,-58.31,110.11,0
684421.0,0.458,0.351,0.193,35.2,-67.18,0
684426.0,-0.418,-0.461,-0.135,-46.37,107.91,0
684431.0,0.451,0.576,0.14,50.64,-72.73,0
684436.0,-0.442,-0.588,-0.116,-52.14,104.7,0
684441.0,0.545,0.48,0.301,37.66,-61.1,0
684446.0,-0.384,-0.578,-0.018,-56.35,92.65,0
684451.0,0.389,0.511,0.049,52.52,-82.78,0
684456.0,-0.296,-0.569,-0.063,-61.98,102.07,0
684461.0,0.489,0.432,0.291,37.2,-59.26,0
684466.0,-0.387,-0.458,-0.087,-49.14,102.71,0
684471.0,0.398,0.483,-0.173,47.99,-113.52,0
684476.0,-0.425,-0.54,-0.114,-50.81,104.96,0
684481.0,0.528,0.413,0.119,37.37,-77.33,0
684486.0,-0.372,-0.485,-0.269,-46.53,125.86,0
684491.0,0.42,0.356,0.135,38.86,-72.13,0
684496.0,-0.301,-0.478,-0.003,-57.81,90.65,0
684501.0,0.456,0.415,0.202,39.79,-66.06,0
684506.0,-0.435,-0.458,-0.262,-42.09,121.08,0
684511.0,0.375,-0.296,0.025,-38.22,-86.14,0
684516.0,-0.449,-0.516,0.013,-48.95,88.3,0
684521.0,0.437,0.511,0.179,47.29,-67.77,0
684526.0,-0.293,-0.528,-0.142,-58.29,115.87,0
684531.0,0.528,0.492,0.286,39.34,-61.52,0
684536.0,-0.315,-0.609,-0.075,-62.01,103.44,0
684541.0,0.535,0.461,0.061,40.57,-83.47,0
684546.0,-0.296,-0.399,-0.027,-53.3,95.29,0
684551.0,0.425,0.442,0.248,41.93,-59.73,0
684556.0,-0.394,-0.597,-0.047,-56.41,96.73,0
684561.0,0.336,0.439,0.018,52.54,-86.92,0
684566.0,-0.078,0.245,0.277,40.5,15.74,0
684571.0,0.42,0.466,-0.161,45.99,-111.03,0
684576.0,-0.519,-0.566,-0.068,-47.27,97.48,0
684581.0,0.43,0.348,0.133,37.77,-72.79,0
684586.0,-0.253,-0.401,0.111,-55.43,66.2,0
684591.0,0.42,0.389,-0.303,36.93,-125.78,0
684596.0,-0.468,-0.547,0.035,-49.36,85.74,0
684601.0,0.456,-0.14,-0.003,-17.07,-90.43,0
684606.0,-0.056,0.174,0.03,69.79,61.93,0
684611.0,0.343,-0.32,-0.145,-40.61,-112.85,0
684616.0,-0.32,0.332,0.068,45.41,77.93,0
684621.0,0.358,-0.214,-0.102,-29.94,-105.85,0
684626.0,-0.32,0.224,0.066,34.44,78.34,0
684631.0,0.363,-0.214,0.032,-30.47,-84.88,0
684636.0,-0.507,0.176,-0.003,19.17,90.39,0
684641.0,0.351,-0.14,-0.047,-21.59,-97.56,0
684646.0,-0.104,0.109,0.123,34.0,40.19,0
684651.0,0.228,-0.166,0.1,-33.72,-66.46,0
684656.0,-0.088,0.109,0.049,47.34,60.64,0
684661.0,0.176,-0.173,-0.039,-43.92,-102.61,0
684666.0,-0.174,0.162,0.018,42.79,84.05,0
684671.0,0.126,-0.109,-0.061,-37.96,-115.88,0
684676.0,-0.128,0.164,0.016,51.78,83.01,0
684681.0,0.085,-0.097,0.032,-46.84,-69.05,0
684686.0,-0.088,0.116,0.19,29.0,24.68,0
684691.0,0.063,-0.219,-0.058,-68.52,-132.75,0
684696.0,-0.104,0.188,-0.099,52.56,133.56,0
684701.0,0.157,-0.083,0.028,-27.42,-79.98,0
684706.0,-0.248,0.066,0.08,14.19,72.04,0
684711.0,0.319,-0.154,0.018,-25.75,-86.75,0
684716.0,-0.164,0.068,0.097,19.71,59.39,0
684721.0,0.363,-0.099,0.155,-14.14,-66.91,0
684726.0,-0.023,0.064,0.164,20.97,7.94,0
684731.0,0.236,-0.157,0.111,-31.01,-64.68,0
684736.0,-0.116,0.19,0.078,53.68,56.16,0
684741.0,0.252,-0.118,0.018,-25.08,-85.89,0
684746.0,-0.138,0.097,0.167,24.17,39.61,0
684751.0,0.281,-0.025,0.1,-4.8,-70.51,0
684756.0,-0.2,-0.128,-0.015,-32.53,94.4,0
684761.0,0.264,0.083,-0.023,17.31,-94.88,0
684766.0,-0.159,-0.056,0.073,-17.76,65.34,0
684771.0,0.274,0.001,0.119,0.25,-66.58,0
684776.0,-0.135,0.008,-0.001,3.57,90.44,0
684781.0,0.185,0.078,-0.027,22.57,-98.4,0
684786.0,-0.253,-0.066,0.061,-14.19,76.39,0
684791.0,0.243,-0.085,0.102,-17.87,-67.23,0
684796.0,-0.308,-0.051,-0.035,-9.42,96.41,0
684801.0,0.248,0.073,0.126,14.74,-63.06,0
684806.0,-0.258,-0.013,0.143,-2.55,61.02,0
684811.0,0.42,-0.001,0.071,-0.15,-80.43,0
684816.0,-0.152,-0.245,-0.102,-53.28,123.72,0
684821.0,0.372,0.164,0.116,22.82,-72.65,0
684826.0,-0.246,-0.068,0.088,-14.65,70.38,0
684831.0,0.384,0.123,-0.03,17.76,-94.43,0
684836.0,-0.262,-0.255,0.006,-44.17,88.66,0
684841.0,0.375,0.15,0.243,18.54,-57.01,0
684846.0,-0.238,-0.202,0.083,-38.71,70.85,0
684851.0,0.236,0.068,-0.114,14.64,-115.73,0
684856.0,-0.226,-0.291,-0.008,-52.08,92.08,0
684861.0,0.456,0.317,0.384,28.02,-49.86,0
684866.0,-0.255,-0.245,0.009,-43.86,88.08,0
684871.0,0.415,0.2,-0.008,25.71,-91.13,0
684876.0,-0.116,-0.31,0.073,-66.1,57.81,0
684881.0,0.461,0.2,0.255,20.79,-61.02,0
684886.0,-0.274,-0.178,0.037,-32.78,82.26,0
684891.0,0.343,0.157,0.126,23.22,-69.87,0
684896.0,-0.317,-0.14,0.08,-23.15,75.79,0
684901.0,0.387,0.162,0.147,21.35,-69.12,0
684906.0,-0.363,-0.25,-0.066,-34.15,100.26,0
684911.0,0.487,0.174,0.159,18.72,-71.88,0
684916.0,-0.274,-0.298,0.054,-46.83,78.86,0
684921.0,0.482,0.284,0.116,29.77,-76.44,0
684926.0,-0.272,-0.375,-0.049,-53.59,100.2,0
684931.0,0.422,0.272,0.054,32.55,-82.71,0
684936.0,-0.241,-0.379,0.03,-57.4,82.88,0
684941.0,0.403,0.341,0.155,38.31,-69.03,0
684946.0,-0.301,-0.336,0.044,-47.9,81.59,0
684951.0,0.372,0.226,0.138,29.7,-69.68,0
684956.0,-0.365,-0.442,-0.126,-48.83,108.97,0
684961.0,0.346,0.415,0.121,48.59,-70.7,0
684966.0,-0.279,-0.363,0.133,-49.55,64.51,0
684971.0,0.379,0.291,0.155,35.39,-67.83,0
684976.0,-0.303,-0.487,-0.073,-57.39,103.52,0
684981.0,0.604,0.48,0.207,36.92,-71.07,0
684986.0,-0.315,-0.442,0.078,-53.69,76.1,0
684991.0,0.506,0.298,0.083,30.17,-80.71,0
684996.0,-0.32,-0.473,-0.015,-55.89,92.76,0
685001.0,0.511,0.466,0.236,39.61,-65.21,0
685006.0,-0.32,-0.315,0.054,-44.14,80.41,0
685011.0,0.341,0.262,0.083,36.77,-76.36,0
685016.0,-0.248,-0.502,0.025,-63.57,84.17,0
685021.0,0.437,0.451,0.32,39.82,-53.79,0
685026.0,-0.43,-0.334,-0.011,-37.83,91.41,0
685031.0,0.463,0.332,0.181,33.71,-68.66,0
685036.0,-0.408,-0.604,-0.039,-55.83,95.5,0
685041.0,0.461,0.504,0.095,46.98,-78.38,0
685046.0,-0.329,-0.42,0.169,-48.62,62.84,0
685051.0,0.43,0.356,0.277,34.84,-57.22,0
685056.0,-0.337,-0.628,-0.102,-60.78,106.8,0
685061.0,0.504,0.463,0.181,40.88,-70.25,0
685066.0,-0.365,-0.367,0.054,-44.86,81.59,0
685071.0,0.403,0.411,0.246,41.02,-58.66,0
685076.0,-0.344,-0.557,-0.109,-57.07,107.56,0
685081.0,0.513,0.454,0.078,41.15,-81.36,0
685086.0,-0.322,-0.439,-0.001,-53.74,90.18,0
685091.0,0.504,0.447,0.133,40.6,-75.21,0
685096.0,-0.284,-0.633,-0.035,-65.69,96.94,0
685101.0,0.461,0.454,0.202,42.04,-66.28,0
685106.0,-0.411,-0.403,-0.154,-42.59,110.58,0
685111.0,0.245,0.483,0.018,62.99,-85.78,0
685116.0,-0.408,-0.569,-0.035,-54.21,94.84,0
685121.0,0.422,0.351,0.339,32.93,-51.26,0
685126.0,-0.451,0.348,-0.128,36.6,105.82,0
685131.0,0.331,0.396,-0.231,44.46,-124.86,0
685136.0,-0.423,-0.48,-0.097,-47.9,102.9,0
685141.0,0.475,0.375,0.435,30.2,-47.54,0
685146.0,-0.442,-0.375,-0.217,-37.28,116.1,0
685151.0,0.398,0.387,-0.128,42.74,-107.8,0
685156.0,-0.416,-0.569,-0.152,-52.11,110.08,0
685161.0,0.403,0.42,0.018,46.15,-87.43,0
685166.0,0.106,0.145,0.061,49.74,-60.08,0
685171.0,0.365,0.566,-0.238,52.42,-123.12,0
685176.0,-0.349,-0.571,-0.102,-57.55,106.25,0
685181.0,0.477,0.468,-0.169,42.75,-109.45,0
685186.0,-0.406,-0.451,0.181,-45.43,65.98,0
685191.0,0.427,0.451,-0.102,45.79,-103.38,0
685196.0,-0.499,-0.537,-0.066,-46.86,97.49,0
685201.0,0.391,0.466,-0.245,45.24,-122.08,0
685206.0,0.023,0.293,0.164,60.54,-7.83,0
685211.0,0.363,-0.411,0.023,-48.49,-86.39,0
685216.0,-0.344,0.348,-0.025,45.31,94.16,0
685221.0,0.466,-0.365,-0.312,-33.07,-123.86,0
685226.0,-0.289,0.384,0.102,51.46,70.55,0
685231.0,0.442,-0.264,0.011,-30.91,-88.58,0
685236.0,-0.456,0.284,0.111,31.14,76.27,0
685241.0,0.358,-0.298,-0.078,-39.14,-102.25,0
685246.0,-0.155,0.313,0.128,57.27,50.32,0
685251.0,-0.128,-0.32,-0.082,-64.49,122.73,0
685256.0,-0.066,0.423,0.052,78.79,51.96,0
685261.0,-0.006,-0.336,-0.157,-65.01,177.75,0
685266.0,-0.044,0.329,0.03,80.74,55.91,0
685271.0,0.116,-0.305,-0.176,-55.39,-146.59,0
685276.0,-0.076,0.229,-0.023,70.97,106.64,0
685281.0,0.097,-0.176,-0.027,-60.23,-105.79,0
685286.0,-0.126,0.138,0.013,47.42,83.95,0
685291.0,0.006,-0.25,-0.181,-54.15,-178.15,0
685296.0,-0.109,0.334,0.104,65.69,46.29,0
685301.0,0.008,-0.248,0.054,-77.56,-8.65,0
685306.0,-0.128,0.277,0.042,63.99,71.84,0
685311.0,0.068,-0.32,-0.183,-58.57,-159.59,0
685316.0,-0.083,0.231,0.044,67.88,61.76,0
685321.0,0.087,-0.202,-0.104,-56.13,-140.01,0
685326.0,0.003,0.241,0.018,85.62,-10.73,0
685331.0,0.152,-0.267,-0.09,-56.54,-120.55,0
685336.0,-0.08,0.188,0.076,59.6,46.76,0
685341.0,0.078,-0.229,-0.068,-65.69,-131.24,0
685346.0,-0.162,0.214,0.059,51.24,70.02,0
685351.0,0.039,-0.157,-0.015,-74.91,-111.38,0
685356.0,-0.207,0.181,0.052,40.25,76.01,0
685361.0,0.123,-0.2,-0.07,-54.63,-119.78,0
685366.0,-0.143,0.198,0.071,51.14,63.6,0
685371.0,0.272,-0.231,0.071,-39.45,-75.39,0
685376.0,-0.047,0.217,0.097,63.55,25.75,0
685381.0,0.099,-0.181,-0.006,-61.19,-93.36,0
685386.0,0.015,0.114,0.164,34.61,-5.36,0
685391.0,0.123,-0.188,0.059,-54.0,-64.47,0
685396.0,-0.131,0.152,-0.078,45.03,120.73,0
685401.0,0.205,-0.001,-0.044,-0.31,-102.18,0
685406.0,-0.159,0.006,0.128,1.7,51.18,0
685411.0,0.243,-0.135,0.121,-26.48,-63.5,0
685416.0,-0.207,0.028,-0.047,7.41,102.65,0
685421.0,0.164,0.028,-0.027,9.44,-99.48,0
685426.0,-0.133,0.09,0.059,31.71,66.15,0
685431.0,0.315,-0.272,0.092,-39.64,-73.65,0
685436.0,-0.097,0.159,0.064,53.91,56.78,0
685441.0,0.26,-0.051,0.092,-10.57,-70.42,0
685446.0,-0.179,0.193,0.056,45.84,72.46,0
685451.0,0.193,-0.176,-0.035,-41.96,-100.17,0
685456.0,-0.238,-0.018,-0.078,-4.08,108.04,0
685461.0,0.202,0.087,-0.023,23.27,-96.37,0
685466.0,-0.159,-0.025,0.073,-8.13,65.34,0
685471.0,0.176,-0.075,-0.047,-22.5,-104.82,0
685476.0,-0.186,-0.056,-0.037,-16.53,101.25,0
685481.0,0.252,0.162,0.054,32.06,-77.92,0
685486.0,-0.2,-0.025,0.109,-6.28,61.4,0
685491.0,0.315,-0.078,0.085,-13.41,-74.86,0
685496.0,-0.183,-0.08,0.068,-22.27,69.54,0
685501.0,0.324,0.085,0.183,12.87,-60.52,0
685506.0,-0.217,-0.018,0.076,-4.45,70.78,0
685511.0,0.279,0.08,-0.037,15.93,-97.55,0
685516.0,-0.183,-0.154,-0.003,-40.09,91.07,0
685521.0,0.3,0.111,0.147,18.42,-63.86,0
685526.0,-0.27,-0.15,0.056,-28.51,78.18,0
685531.0,0.236,-0.006,0.035,-1.42,-81.58,0
685536.0,-0.167,-0.099,-0.013,-30.72,94.47,0
685541.0,0.269,0.245,0.131,39.37,-64.11,0
685546.0,-0.289,-0.063,0.073,-12.01,75.77,0
685551.0,0.296,-0.023,-0.001,-4.39,-90.2,0
685556.0,-0.27,-0.14,-0.066,-26.78,103.7,0
685561.0,0.305,0.193,0.071,31.62,-76.94,0
685566.0,-0.416,-0.145,-0.013,-19.2,91.79,0
685571.0,0.396,0.047,0.104,6.51,-75.25,0
685576.0,-0.248,-0.279,0.03,-48.15,83.08,0
685581.0,0.42,0.253,0.054,30.82,-82.67,0
685586.0,-0.329,-0.152,0.006,-24.76,88.93,0
685591.0,0.336,0.073,0.073,11.99,-77.72,0
685596.0,-0.272,-0.162,0.025,-30.6,84.68,0
685601.0,0.322,0.229,0.169,32.18,-62.3,0
685606.0,-0.272,-0.193,0.059,-34.7,77.79,0
685611.0,0.37,0.14,0.157,19.23,-67.0,0
685616.0,-0.246,-0.339,0.04,-53.71,80.82,0
685621.0,0.542,0.317,0.202,28.74,-69.52,0
685626.0,-0.317,-0.193,-0.015,-31.23,92.78,0
685631.0,0.509,0.236,0.155,23.93,-73.09,0
685636.0,-0.243,-0.315,0.083,-50.78,71.2,0
685641.0,0.454,0.279,0.195,29.47,-66.7,0
685646.0,-0.281,-0.324,0.018,-48.99,86.32,0
685651.0,0.336,0.281,0.238,34.32,-54.66,0
685656.0,-0.248,-0.451,0.066,-60.38,75.09,0
685661.0,0.461,0.365,0.193,36.17,-67.28,0
685666.0,-0.279,-0.36,0.037,-51.99,82.39,0
685671.0,0.48,0.327,0.133,33.28,-74.5,0
685676.0,-0.222,-0.36,-0.078,-56.9,109.31,0
685681.0,0.477,0.222,0.001,24.89,-89.84,0
685686.0,-0.289,0.248,0.061,40.03,78.03,0
685691.0,0.432,0.222,0.277,23.36,-57.36,0
685696.0,-0.423,-0.31,0.028,-36.19,86.25,0
685701.0,0.403,0.348,0.207,37.54,-62.8,0
685706.0,-0.315,-0.379,0.056,-49.85,79.84,0
685711.0,0.41,0.284,0.243,30.75,-59.36,0
685716.0,-0.255,-0.442,-0.082,-58.74,107.91,0
685721.0,0.578,0.392,0.188,32.79,-71.97,0
685726.0,-0.286,0.281,-0.049,44.1,99.7,0
685731.0,0.432,0.327,0.133,35.87,-72.88,0
685736.0,-0.205,-0.42,0.006,-63.99,88.28,0
685741.0,0.43,0.435,0.279,40.31,-56.99,0
685746.0,-0.351,-0.396,-0.044,-48.24,97.17,0
685751.0,0.418,0.427,0.119,44.55,-74.14,0
685756.0,-0.37,-0.54,0.04,-55.41,83.88,0
685761.0,0.609,0.478,-0.212,36.53,-109.17,0
685766.0,0.094,0.231,-0.032,66.66,-108.81,0
685771.0,0.415,0.444,-0.264,42.06,-122.49,0
685776.0,-0.303,-0.561,0.064,-61.12,78.15,0
685781.0,0.444,0.511,-0.183,46.79,-112.4,0
685786.0,-0.332,-0.506,0.083,-55.97,75.99,0
685791.0,0.372,0.48,-0.154,50.0,-112.52,0
685796.0,-0.432,-0.566,0.064,-52.34,81.63,0
685801.0,0.494,0.487,-0.219,42.03,-113.89,0
685806.0,0.047,0.401,-0.006,83.33,-97.14,0
685811.0,0.492,-0.296,-0.097,-30.53,-101.13,0
685816.0,-0.375,0.36,0.107,42.76,74.11,0
685821.0,0.473,-0.3,-0.231,-29.73,-116.03,0
685826.0,-0.317,0.272,-0.058,40.11,100.44,0
685831.0,0.37,-0.25,-0.217,-30.27,-120.35,0
685836.0,-0.377,0.255,0.202,30.78,61.78,0
685841.0,0.48,-0.255,0.016,-27.96,-88.12,0
685846.0,0.044,0.298,0.03,79.84,-55.72,0
685851.0,-0.205,-0.298,-0.377,-34.79,151.48,0
685856.0,-0.006,0.425,0.071,80.51,4.96,0
685861.0,-0.071,-0.391,-0.037,-78.47,117.56,0
685866.0,-0.018,0.336,0.083,75.87,12.35,0
685871.0,-0.078,-0.26,-0.281,-41.67,164.5,0
685876.0,-0.085,0.298,-0.138,61.52,148.23,0
685881.0,-0.174,-0.238,-0.176,-43.93,135.34,0
685886.0,0.02,0.332,0.138,67.22,-8.33,0
685891.0,-0.176,-0.305,-0.214,-47.74,140.56,0
685896.0,-0.023,0.38,-0.003,86.51,98.52,0
685901.0,-0.131,-0.375,-0.147,-62.29,138.39,0
685906.0,-0.042,0.284,0.09,70.72,25.06,0
685911.0,0.044,-0.238,-0.111,-63.33,-158.35,0
685916.0,-0.109,0.31,-0.099,64.57,132.28,0
685921.0,-0.021,-0.267,-0.248,-47.04,175.27,0
685926.0,0.075,0.265,0.021,73.58,-74.75,0
685931.0,-0.028,-0.341,-0.138,-67.65,168.61,0
685936.0,-0.1,0.394,0.042,74.66,67.09,0
685941.0,-0.044,-0.293,-0.099,-69.66,155.86,0
685946.0,-0.044,0.308,0.119,67.62,20.53,0
685951.0,0.02,-0.322,-0.094,-73.31,-167.93,0
685956.0,-0.023,0.334,0.104,72.27,12.38,0
685961.0,0.042,-0.243,-0.023,-78.95,-118.42,0
685966.0,0.03,0.267,0.04,79.48,-36.89,0
685971.0,0.08,-0.267,-0.14,-58.87,-150.22,0
685976.0,-0.107,0.255,0.025,66.74,76.66,0
685981.0,0.166,-0.197,-0.121,-43.86,-125.99,0
685986.0,-0.181,0.226,0.021,51.18,83.53,0
685991.0,0.123,-0.185,0.013,-56.26,-83.82,0
685996.0,-0.143,0.262,0.147,51.97,44.05,0
686001.0,0.118,-0.272,-0.03,-65.81,-104.12,0
686006.0,-0.145,0.226,0.013,57.24,84.75,0
686011.0,0.035,-0.327,-0.03,-82.05,-130.74,0
686016.0,-0.04,0.353,0.083,75.44,25.61,0
686021.0,0.018,-0.224,-0.123,-60.93,-171.78,0
686026.0,0.023,0.245,0.111,65.14,-11.45,0
686031.0,0.082,-0.315,-0.068,-71.24,-129.55,0
686036.0,0.015,0.257,0.097,69.1,-9.01,0
686041.0,0.176,-0.253,0.018,-55.01,-84.12,0
686046.0,-0.052,0.198,0.169,48.2,16.99,0
686051.0,0.128,-0.303,-0.068,-64.42,-118.02,0
686056.0,-0.078,0.344,-0.049,75.01,122.11,0
686061.0,0.2,-0.121,0.061,-30.04,-72.96,0
686066.0,-0.001,0.21,0.236,41.61,0.33,0
686071.0,0.164,-0.332,-0.056,-62.42,-108.9,0
686076.0,-0.126,0.152,-0.037,49.23,106.36,0
686081.0,0.116,-0.006,0.068,-2.51,-59.47,0
686086.0,-0.164,0.128,0.181,27.68,42.22,0
686091.0,0.19,-0.13,0.066,-32.93,-70.86,0
686096.0,-0.195,0.099,-0.018,26.89,95.21,0
686101.0,0.228,-0.039,-0.011,-9.78,-92.66,0
686106.0,-0.157,0.035,0.064,11.61,67.94,0
686111.0,0.185,-0.14,-0.047,-36.22,-104.09,0
686116.0,-0.162,0.121,-0.102,32.35,122.13,0
686121.0,0.166,0.016,0.049,5.16,-73.5,0
686126.0,-0.179,0.114,0.088,29.78,63.88,0
686131.0,0.142,-0.181,-0.092,-46.84,-122.89,0
686136.0,-0.329,0.064,-0.073,10.67,102.47,0
686141.0,0.255,-0.037,0.195,-6.58,-52.53,0
686146.0,-0.167,0.083,0.164,19.47,45.41,0
686151.0,0.217,-0.13,-0.066,-29.96,-106.88,0
686156.0,-0.042,0.111,0.049,59.83,40.5,0
686161.0,0.312,-0.09,0.021,-15.99,-86.24,0
686166.0,-0.147,0.023,0.09,7.53,58.61,0
686171.0,0.348,-0.018,0.159,-2.67,-65.41,0
686176.0,-0.131,-0.032,0.052,-12.93,68.43,0
686181.0,0.315,0.054,0.011,9.72,-88.01,0
686186.0,-0.277,-0.135,0.138,-23.62,63.52,0
686191.0,0.25,0.128,0.243,20.18,-45.8,0
686196.0,-0.248,-0.071,-0.058,-15.48,103.27,0
686201.0,0.267,0.004,-0.145,0.69,-118.47,0
686206.0,-0.181,-0.051,0.097,-14.05,61.77,0
686211.0,0.353,-0.044,0.193,-6.27,-61.35,0
686216.0,-0.133,0.03,0.056,11.73,67.02,0
686221.0,0.425,-0.001,0.068,-0.15,-80.85,0
686226.0,-0.281,-0.054,-0.085,-10.37,106.77,0
686231.0,0.351,0.02,0.09,3.23,-75.61,0
686236.0,-0.217,-0.051,0.183,-10.26,49.79,0
686241.0,0.298,0.111,0.15,18.47,-63.31,0
686246.0,-0.298,-0.176,-0.078,-29.72,104.59,0
686251.0,0.221,0.068,-0.063,16.53,-105.96,0
686256.0,-0.236,-0.121,0.109,-24.93,65.19,0
686261.0,0.353,0.195,-0.19,25.96,-118.31,0
686266.0,-0.267,-0.226,0.04,-39.95,81.55,0
686271.0,0.37,0.164,-0.025,23.88,-93.86,0
686276.0,-0.286,-0.243,-0.054,-39.83,100.63,0
686281.0,0.477,0.241,0.207,24.82,-66.54,0
686286.0,-0.186,-0.233,0.011,-51.44,86.63,0
686291.0,0.334,0.078,0.066,12.89,-78.82,0
686296.0,-0.198,-0.229,0.181,-40.46,47.53,0
686301.0,0.377,-0.257,-0.379,-25.69,-135.18,0
686306.0,-0.291,-0.183,-0.116,-30.3,111.72,0
686311.0,0.387,0.174,0.095,23.58,-76.23,0
686316.0,-0.219,-0.274,0.162,-45.17,53.58,0
686321.0,0.449,0.281,0.143,30.86,-72.37,0
686326.0,-0.277,-0.236,-0.068,-39.6,103.82,0
686331.0,0.389,0.219,0.2,26.61,-62.78,0
686336.0,-0.382,-0.327,0.042,-40.37,83.72,0
686341.0,-0.279,-0.264,-0.214,-36.94,127.5,0
686346.0,-0.289,-0.317,0.068,-46.91,76.67,0
686351.0,0.415,0.245,0.238,27.14,-60.14,0
686356.0,-0.179,-0.43,-0.181,-59.42,135.33,0
686361.0,0.501,0.411,-0.341,34.11,-124.22,0
686366.0,-0.181,-0.308,-0.047,-58.73,104.42,0
686371.0,0.475,0.38,-0.382,31.91,-128.78,0
686376.0,-0.179,-0.49,-0.126,-65.97,125.11,0
686381.0,-0.289,-0.219,-0.25,-29.83,130.9,0
686386.0,-0.253,-0.387,-0.035,-56.58,97.79,0
686391.0,0.437,0.368,-0.37,32.71,-130.25,0
686396.0,-0.258,-0.48,-0.008,-61.77,91.83,0
686401.0,0.516,0.392,-0.209,35.12,-112.09,0
686406.0,-0.37,0.336,0.078,41.66,78.1,0
686411.0,0.396,-0.262,-0.178,-31.11,-114.22,0
686416.0,-0.339,0.315,0.076,42.2,77.43,0
686421.0,-0.155,-0.305,-0.104,-58.6,123.93,0
686426.0,-0.313,0.315,-0.044,44.93,98.04,0
686431.0,0.418,-0.214,-0.327,-22.0,-128.03,0
686436.0,-0.226,0.269,0.066,48.8,73.75,0
686441.0,0.499,-0.279,-0.164,-27.96,-108.18,0
686446.0,0.135,0.286,-0.039,63.82,-106.24,0
686451.0,-0.207,-0.262,-0.236,-39.86,138.67,0
686456.0,0.054,0.38,0.167,65.25,-17.87,0
686461.0,-0.214,-0.367,-0.116,-56.44,118.4,0
686466.0,0.023,0.238,-0.097,67.36,-166.87,0
686471.0,-0.31,-0.221,-0.267,-28.42,130.7,0
686476.0,-0.131,0.36,0.061,68.18,64.89,0
686481.0,-0.25,-0.293,-0.219,-41.4,131.17,0
686486.0,0.066,0.293,-0.082,70.24,-141.46,0
686491.0,-0.123,-0.367,-0.41,-40.61,163.26,0
686496.0,0.056,0.401,-0.114,72.47,-153.71,0
686501.0,-0.08,-0.248,-0.138,-57.26,149.7,0
686506.0,0.126,0.26,0.054,62.26,-66.71,0
686511.0,-0.301,-0.296,-0.37,-31.81,140.89,0
686516.0,-0.03,0.253,-0.02,81.84,123.86,0
686521.0,-0.152,-0.26,-0.02,-59.41,97.56,0
686526.0,-0.1,0.274,0.279,42.78,19.63,0
686531.0,-0.217,-0.243,-0.19,-40.11,131.25,0
686536.0,-0.004,0.313,-0.075,76.44,177.15,0
686541.0,-0.073,-0.355,-0.293,-49.64,165.98,0
686546.0,0.094,0.332,-0.003,74.1,-92.08,0
686551.0,-0.085,-0.253,-0.195,-49.88,156.41,0
686556.0,0.051,0.277,0.133,62.73,-21.09,0
686561.0,-0.056,-0.212,-0.193,-46.55,163.67,0
686566.0,-0.217,0.186,-0.214,31.35,134.64,0
686571.0,-0.157,-0.188,-0.267,-31.25,149.53,0
686576.0,-0.018,0.348,0.289,50.3,3.59,0
686581.0,-0.229,-0.305,-0.142,-48.56,121.88,0
686586.0,0.114,0.25,-0.2,47.44,-150.38,0
686591.0,-0.059,-0.351,-0.209,-58.2,164.31,0
686596.0,0.082,0.427,0.26,57.46,-17.6,0
686601.0,0.02,-0.372,-0.116,-72.45,-170.12,0
686606.0,-0.126,0.372,-0.147,62.53,139.45,0
686611.0,-0.049,-0.255,-0.157,-57.21,162.55,0
686616.0,-0.04,0.387,0.167,66.12,13.39,0
686621.0,-0.076,-0.363,-0.121,-68.55,147.96,0
686626.0,-0.025,0.236,0.001,83.87,86.93,0
686631.0,-0.042,-0.329,-0.109,-70.49,158.86,0
686636.0,0.006,0.411,0.119,73.86,-2.81,0
686641.0,-0.128,-0.312,-0.197,-53.0,146.98,0
686646.0,0.042,0.298,0.03,80.21,-54.21,0
686651.0,-0.04,-0.281,-0.157,-60.12,165.79,0
686656.0,-0.037,0.365,0.035,82.04,46.9,0
686661.0,0.047,-0.26,-0.023,-78.74,-115.89,0
686666.0,-0.095,0.181,0.044,59.94,64.86,0
686671.0,0.09,-0.255,-0.092,-63.26,-135.76,0
686676.0,-0.159,0.229,0.064,53.12,68.24,0
686681.0,-0.016,-0.169,-0.073,-66.16,167.82,0
686686.0,-0.128,0.25,-0.102,56.83,128.38,0
686691.0,-0.025,-0.19,-0.205,-42.71,172.95,0
686696.0,-0.042,0.262,0.109,65.97,21.08,0
686701.0,0.054,-0.3,-0.068,-73.9,-141.73,0
686706.0,0.006,0.21,0.128,58.51,-2.6,0
686711.0,0.118,-0.26,-0.068,-62.27,-119.91,0
686716.0,0.013,0.301,0.128,66.79,-5.79,0
686721.0,0.154,-0.245,-0.063,-55.8,-112.31,0
686726.0,-0.104,0.181,0.006,59.98,86.63,0
686731.0,0.128,-0.2,0.004,-57.36,-88.32,0
686736.0,-0.19,0.279,0.08,53.46,67.13,0
686741.0,0.114,-0.3,-0.049,-67.63,-113.31,0
686746.0,-0.135,0.303,0.071,63.23,62.4,0
686751.0,0.145,-0.303,-0.02,-64.24,-97.94,0
686756.0,-0.044,0.257,0.1,67.05,24.07,0
686761.0,0.164,-0.231,0.059,-52.99,-70.25,0
686766.0,-0.03,0.202,0.066,70.28,24.51,0
686771.0,0.188,-0.185,-0.149,-37.7,-128.52,0
686776.0,-0.131,0.222,0.032,58.71,76.04,0
686781.0,0.195,-0.207,0.056,-45.57,-73.86,0
686786.0,-0.15,0.078,0.071,25.18,64.71,0
686791.0,0.075,-0.214,-0.142,-53.08,-152.13,0
686796.0,-0.095,0.226,-0.006,67.25,93.52,0
686801.0,0.228,0.02,0.133,4.42,-59.79,0
686806.0,-0.202,0.073,0.018,19.78,84.89,0
686811.0,0.236,-0.262,-0.147,-43.33,-121.97,0
686816.0,-0.155,0.092,0.013,30.74,85.07,0
686821.0,0.092,0.066,0.104,25.36,-41.42,0
686826.0,-0.169,0.049,0.064,15.23,69.37,0
686831.0,0.221,-0.051,0.143,-11.05,-57.2,0
686836.0,-0.222,0.016,0.107,3.64,64.29,0
686841.0,0.228,-0.023,-0.106,-5.14,-114.97,0
686846.0,-0.243,0.159,-0.171,28.18,125.12,0
686851.0,0.252,-0.207,0.023,-39.24,-84.82,0
686856.0,-0.174,0.178,0.114,40.66,56.76,0
686861.0,0.193,-0.14,-0.298,-21.53,-147.12,0
686866.0,-0.253,0.056,-0.109,11.57,113.29,0
686871.0,0.217,-0.133,0.15,-26.77,-55.32,0
686876.0,-0.224,-0.011,0.107,-2.47,64.53,0
686881.0,0.284,0.059,0.147,10.41,-62.53,0
686886.0,-0.169,0.011,0.135,2.87,51.28,0
686891.0,0.322,-0.08,0.114,-13.21,-70.51,0
686896.0,-0.109,-0.09,-0.003,-39.41,91.8,0
686901.0,0.329,0.006,-0.08,1.03,-103.67,0
686906.0,-0.272,-0.023,0.116,-4.38,66.85,0
686911.0,0.331,-0.047,-0.147,-7.32,-113.93,0
686916.0,-0.222,-0.061,-0.185,-11.92,129.91,0
686921.0,0.394,0.123,0.152,16.29,-68.86,0
686926.0,-0.313,-0.083,0.025,-14.74,85.37,0
686931.0,0.286,0.056,0.018,11.13,-86.37,0
686936.0,-0.337,-0.128,0.013,-20.81,87.73,0
686941.0,0.298,-0.32,-0.171,-42.93,-119.86,0
686946.0,-0.308,-0.106,0.011,-19.07,87.97,0
686951.0,0.296,0.107,0.085,19.12,-73.93,0
686956.0,-0.147,-0.171,0.088,-44.94,59.29,0
686961.0,0.408,0.109,-0.355,11.39,-131.05,0
686966.0,-0.186,-0.202,-0.104,-43.54,119.25,0
686971.0,0.324,0.116,-0.185,17.28,-119.76,0
686976.0,-0.258,-0.111,0.193,-19.07,53.17,0
686981.0,-0.248,-0.231,-0.173,-37.35,124.97,0
686986.0,-0.387,-0.286,0.08,-35.9,78.26,0
686991.0,0.391,0.064,-0.197,8.25,-116.77,0
686996.0,-0.241,-0.26,-0.015,-47.11,93.66,0
687001.0,0.463,0.382,-0.341,33.59,-126.37,0
687006.0,-0.238,0.19,0.047,38.09,78.88,0
687011.0,0.408,-0.276,-0.226,-30.65,-118.99,0
687016.0,-0.238,0.31,0.054,51.76,77.23,0
687021.0,-0.25,-0.26,-0.209,-38.51,129.9,0
687026.0,-0.279,0.284,0.023,45.38,85.31,0
687031.0,0.389,-0.236,-0.248,-27.08,-122.49,0
687036.0,-0.2,0.241,-0.008,50.24,92.35,0
687041.0,0.461,-0.339,-0.37,-29.83,-128.75,0
687046.0,0.138,0.274,0.066,60.92,-64.36,0
687051.0,-0.358,-0.296,-0.214,-35.32,120.88,0
687056.0,0.128,0.332,-0.042,67.92,-108.07,0
687061.0,-0.277,-0.322,-0.343,-36.13,141.14,0
687066.0,0.202,0.281,0.138,48.99,-55.71,0
687071.0,-0.193,-0.26,-0.171,-45.21,131.56,0
687076.0,0.02,0.116,-0.14,39.42,-171.79,0
687081.0,-0.2,-0.205,-0.221,-34.45,137.88,0
687086.0,0.058,0.313,0.152,62.45,-21.03,0
687091.0,-0.279,-0.253,-0.305,-31.41,137.55,0
687096.0,0.02,0.317,-0.121,68.9,-170.51,0
687101.0,-0.274,-0.37,-0.281,-43.27,135.71,0
687106.0,0.102,0.284,-0.066,66.91,-122.88,0
687111.0,-0.274,-0.217,-0.245,-30.48,131.8,0
687116.0,0.063,0.358,0.121,69.11,-27.6,0
687121.0,-0.135,-0.348,-0.231,-52.46,149.6,0
687126.0,0.015,0.202,-0.001,85.64,-93.85,0
687131.0,-0.246,-0.233,-0.164,-38.33,123.71,0
687136.0,0.092,0.32,0.114,65.39,-38.94,0
687141.0,-0.281,-0.382,-0.365,-39.64,142.36,0
687146.0,0.008,0.289,-0.193,56.26,-177.56,0
687151.0,-0.123,-0.221,-0.111,-53.11,132.0,0
687156.0,0.015,0.365,0.09,75.97,-9.72,0
687161.0,-0.195,-0.458,-0.463,-42.37,157.14,0
687166.0,0.138,0.334,0.021,67.4,-81.52,0
687171.0,-0.205,-0.243,-0.011,-49.82,92.97,0
687176.0,0.023,0.346,-0.111,71.85,-168.52,0
687181.0,-0.293,-0.329,-0.408,-33.22,144.28,0
687186.0,0.013,0.265,0.329,38.76,-2.26,0
687191.0,-0.207,-0.291,0.011,-54.49,86.98,0
687196.0,-0.088,0.327,-0.123,65.19,144.59,0
687201.0,-0.171,-0.324,-0.231,-48.44,143.42,0
687206.0,0.152,0.353,0.164,57.66,-42.77,0
687211.0,-0.09,-0.315,-0.377,-39.09,166.58,0
687216.0,0.073,0.289,-0.197,53.91,-159.74,0
687221.0,-0.009,-0.291,0.016,-86.48,28.51,0
687226.0,0.102,0.195,0.222,38.68,-24.63,0
687231.0,-0.169,-0.281,-0.351,-35.85,154.27,0
687236.0,-0.04,0.341,0.025,82.15,57.47,0
687241.0,-0.179,-0.226,0.123,-46.18,55.33,0
687246.0,-0.061,0.284,0.167,57.98,20.18,0
687251.0,-0.052,-0.257,-0.279,-42.23,169.51,0
687256.0,-0.016,0.384,0.006,87.49,68.65,0
687261.0,-0.035,-0.322,-0.121,-68.67,163.89,0
687266.0,0.255,0.284,0.169,42.87,-56.46,0
687271.0,-0.076,-0.365,-0.181,-61.79,157.29,0
687276.0,0.07,0.363,-0.044,77.09,-122.06,0
687281.0,-0.085,-0.343,-0.171,-60.92,153.53,0
687286.0,-0.037,0.334,0.1,72.35,20.53,0
687291.0,-0.126,-0.293,-0.121,-59.25,133.81,0
687296.0,-0.19,0.415,0.049,64.66,75.51,0
687301.0,-0.064,-0.267,-0.161,-56.97,158.5,0
687306.0,0.003,0.2,0.044,77.43,-4.41,0
687311.0,-0.042,-0.334,-0.157,-64.09,164.97,0
687316.0,0.003,0.281,-0.035,82.96,-174.33,0
687321.0,-0.03,-0.219,-0.214,-45.36,172.0,0
687326.0,0.104,0.286,0.1,63.3,-46.26,0
687331.0,-0.078,-0.257,-0.159,-55.45,153.89,0
687336.0,-0.044,0.301,0.04,78.79,48.26,0
687341.0,-0.143,-0.341,-0.14,-59.64,134.45,0
687346.0,-0.071,0.38,0.114,70.54,31.86,0
687351.0,-0.078,-0.42,-0.288,-54.59,164.87,0
687356.0,-0.157,0.387,-0.075,65.77,115.61,0
687361.0,0.039,-0.279,-0.097,-69.46,-157.88,0
687366.0,-0.044,0.279,0.056,75.56,38.23,0
687371.0,0.114,-0.231,-0.145,-51.47,-141.87,0
687376.0,-0.042,0.272,0.114,65.93,20.27,0
687381.0,0.102,-0.202,0.004,-63.31,-87.89,0
687386.0,-0.035,0.269,0.121,64.94,16.07,0
687391.0,-0.001,-0.296,-0.075,-75.71,178.97,0
687396.0,-0.109,0.291,0.092,63.84,49.76,0
687401.0,0.039,-0.214,-0.018,-78.6,-114.34,0
687406.0,-0.114,0.202,0.013,60.47,83.32,0
687411.0,0.109,-0.221,-0.181,-46.4,-148.94,0
687416.0,-0.095,0.272,-0.03,69.93,107.44,0
687421.0,0.157,-0.296,-0.082,-59.08,-117.75,0
687426.0,-0.102,0.269,0.152,55.79,33.81,0
687431.0,0.066,-0.166,-0.001,-68.45,-90.9,0
687436.0,-0.169,0.169,0.085,41.75,63.25,0
687441.0,0.121,-0.183,-0.027,-55.93,-102.77,0
687446.0,-0.214,0.169,0.044,37.64,78.29,0
687451.0,0.138,-0.145,-0.032,-45.71,-103.16,0
687456.0,-0.085,0.222,0.047,66.31,61.18,0
687461.0,0.126,-0.193,-0.149,-44.62,-139.98,0
687466.0,-0.143,0.083,0.028,29.64,79.01,0
687471.0,0.221,-0.128,0.006,-30.04,-88.41,0
687476.0,-0.08,0.262,0.09,65.3,41.78,0
687481.0,0.157,-0.059,-0.037,-20.0,-103.27,0
687486.0,-0.181,-0.059,0.071,-16.78,68.63,0
687491.0,0.262,-0.121,0.176,-20.94,-56.09,0
687496.0,-0.238,0.078,0.009,18.08,87.95,0
687501.0,0.255,0.068,-0.363,8.76,-144.9,0
687506.0,-0.15,0.104,0.167,24.95,41.97,0
687511.0,0.286,-0.195,0.157,-30.88,-61.23,0
687516.0,-0.023,0.157,-0.011,80.86,114.86,0
687521.0,0.104,-0.013,-0.063,-6.14,-121.32,0
687526.0,-0.121,0.121,0.061,41.73,63.18,0
687531.0,0.224,-0.281,-0.054,-50.72,-103.5,0
687536.0,-0.238,0.121,-0.025,26.78,95.98,0
687541.0,0.217,-0.25,-0.035,-48.76,-99.07,0
687546.0,-0.229,0.119,0.138,23.94,58.94,0
687551.0,0.207,-0.229,-0.075,-46.07,-109.98,0
687556.0,-0.131,0.008,-0.054,3.43,112.35,0
687561.0,0.305,0.061,-0.149,10.2,-116.1,0
687566.0,-0.138,0.078,-0.073,26.55,117.86,0
687571.0,0.403,-0.106,-0.238,-12.81,-120.56,0
687576.0,-0.145,-0.051,0.116,-15.46,51.27,0
687581.0,-0.349,-0.336,-0.207,-39.68,120.7,0
687586.0,-0.219,0.03,0.025,7.74,83.42,0
687591.0,0.19,-0.063,-0.188,-13.34,-134.64,0
687596.0,-0.234,-0.049,0.224,-8.61,46.2,0
687601.0,0.288,0.078,-0.221,12.1,-127.51,0
687606.0,-0.27,0.293,-0.015,47.38,93.27,0
687611.0,0.315,-0.195,-0.269,-25.22,-130.54,0
687616.0,-0.1,0.205,0.047,61.76,64.79,0
687621.0,-0.207,-0.255,-0.31,-34.36,146.22,0
687626.0,-0.138,0.25,-0.063,58.78,114.66,0
687631.0,0.329,-0.212,-0.202,-28.74,-121.56,0
687636.0,-0.26,0.157,0.054,30.58,78.26,0
687641.0,0.274,-0.224,-0.166,-34.93,-121.25,0
687646.0,0.149,0.298,0.174,52.45,-40.71,0
687651.0,-0.392,-0.205,-0.176,-25.49,114.18,0
687656.0,0.147,0.291,-0.116,57.23,-128.25,0
687661.0,-0.329,-0.365,-0.341,-37.59,136.0,0
687666.0,0.269,0.267,0.131,41.75,-64.11,0
687671.0,-0.38,-0.159,-0.19,-20.54,116.61,0
687676.0,0.279,0.181,0.076,32.05,-74.83,0
687681.0,-0.226,-0.291,-0.224,-42.42,134.65,0
687686.0,0.085,0.279,0.004,73.07,-87.47,0
687691.0,-0.404,-0.166,-0.41,-16.12,135.48,0
687696.0,0.102,0.253,-0.013,67.93,-97.3,0
687701.0,-0.36,-0.272,-0.102,-35.95,105.74,0
687706.0,0.068,0.281,0.073,70.45,-42.93,0
687711.0,-0.243,-0.276,-0.377,-31.65,147.17,0
687716.0,0.228,0.31,0.044,53.11,-78.99,0
687721.0,-0.188,-0.253,-0.039,-52.73,101.81,0
687726.0,0.276,0.265,0.181,38.7,-56.79,0
687731.0,-0.214,-0.2,-0.303,-28.31,144.69,0
687736.0,0.087,0.262,0.016,71.33,-79.78,0
687741.0,-0.281,-0.238,-0.142,-37.05,116.82,0
687746.0,-0.004,0.26,-0.023,84.96,170.57,0
687751.0,-0.377,-0.238,-0.331,-25.37,131.3,0
687756.0,-0.013,0.26,0.047,79.38,15.88,0
687761.0,-0.334,-0.272,-0.226,-33.95,124.08,0
687766.0,0.121,0.255,-0.135,54.61,-138.21,0
687771.0,-0.27,-0.219,-0.322,-27.55,140.06,0
687776.0,0.099,0.253,0.021,68.15,-78.32,0
687781.0,-0.219,-0.267,-0.319,-34.56,145.54,0
687786.0,0.082,0.207,-0.027,67.25,-108.37,0
687791.0,-0.327,-0.257,-0.334,-28.84,135.6,0
687796.0,0.042,0.363,0.032,81.71,-52.11,0
687801.0,-0.305,-0.343,-0.221,-42.32,125.93,0
687806.0,0.058,0.387,0.1,73.38,-30.45,0
687811.0,-0.222,-0.355,-0.228,-48.16,135.87,0
687816.0,0.08,0.384,0.133,68.0,-31.03,0
687821.0,-0.169,-0.305,-0.126,-55.41,126.61,0
687826.0,0.135,0.255,0.047,60.72,-70.88,0
687831.0,-0.226,-0.181,-0.279,-26.71,140.92,0
687836.0,0.078,0.272,-0.049,71.34,-122.21,0
687841.0,-0.193,-0.245,-0.238,-38.68,140.98,0
687846.0,0.025,0.253,0.083,71.11,-16.8,0
687851.0,-0.222,-0.262,-0.221,-39.92,134.96,0
687856.0,-0.078,0.222,-0.075,63.93,133.99,0
687861.0,-0.274,-0.221,-0.341,-26.83,141.19,0
687866.0,0.003,0.241,-0.078,72.1,-177.47,0
687871.0,-0.193,-0.171,-0.185,-32.6,133.86,0
687876.0,0.023,0.289,0.006,85.36,-74.78,0
687881.0,-0.212,-0.358,-0.382,-39.34,150.95,0
687886.0,0.032,0.293,-0.056,77.57,-150.18,0
687891.0,-0.181,-0.284,-0.185,-47.59,135.7,0
687896.0,0.006,0.341,0.073,77.86,-4.55,0
687901.0,-0.188,-0.36,-0.166,-55.13,131.47,0
687906.0,0.013,0.396,0.028,85.59,-25.16,0
687911.0,-0.2,-0.3,-0.377,-35.14,152.04,0
687916.0,-0.028,0.363,-0.027,83.87,134.67,0
687921.0,-0.066,-0.32,-0.056,-74.83,130.37,0
687926.0,0.02,0.26,0.138,61.81,-8.33,0
687931.0,-0.083,-0.176,-0.236,-35.15,160.65,0
687936.0,0.068,0.241,0.1,63.39,-34.37,0
687941.0,-0.114,-0.312,-0.135,-60.5,139.87,0
687946.0,0.054,0.344,0.011,80.94,-78.49,0
687951.0,-0.123,-0.224,-0.102,-54.45,129.45,0
687956.0,-0.049,0.37,0.073,76.59,33.93,0
687961.0,-0.162,-0.391,-0.293,-49.45,151.11,0
687966.0,-0.066,0.243,-0.197,49.43,161.51,0
687971.0,-0.09,-0.245,-0.248,-42.96,160.04,0
687976.0,0.051,0.344,0.186,60.72,-15.45,0
687981.0,-0.066,-0.408,-0.135,-69.77,153.97,0
687986.0,-0.044,0.25,-0.082,69.48,151.67,0
687991.0,-0.114,-0.281,-0.209,-49.72,151.45,0
687996.0,-0.03,0.475,0.1,77.66,16.82,0
688001.0,-0.056,-0.329,-0.102,-70.55,150.95,0
688006.0,0.001,0.231,0.119,62.82,-0.5,0
688011.0,0.013,-0.25,-0.159,-57.46,-175.32,0
688016.0,-0.009,0.332,0.006,88.18,54.26,0
688021.0,0.013,-0.221,-0.147,-56.3,-174.95,0
688026.0,0.03,0.176,0.116,55.71,-14.36,0
688031.0,0.013,-0.324,0.001,-87.69,-84.04,0
688036.0,-0.006,0.293,0.025,84.93,13.65,0
688041.0,-0.032,-0.248,-0.123,-62.79,165.22,0
688046.0,-0.095,0.298,0.076,67.88,51.42,0
688051.0,0.027,-0.214,0.004,-82.65,-82.2,0
688056.0,-0.116,0.344,-0.051,69.7,113.81,0
688061.0,-0.018,-0.375,-0.123,-71.62,171.63,0
688066.0,-0.009,0.301,0.066,77.51,7.37,0
688071.0,0.054,-0.37,-0.063,-77.35,-139.68,0
688076.0,-0.032,0.262,0.116,65.28,15.61,0
688081.0,0.006,-0.399,-0.07,-79.94,-175.27,0
688086.0,-0.066,0.377,0.004,80.06,86.75,0
688091.0,0.147,-0.312,-0.039,-64.01,-104.98,0
688096.0,-0.104,0.382,0.226,56.87,24.74,0
688101.0,0.044,-0.346,-0.147,-66.06,-163.3,0
688106.0,-0.047,0.166,-0.025,72.31,118.07,0
688111.0,0.061,-0.243,-0.142,-57.5,-156.83,0
688116.0,-0.107,0.293,0.004,70.0,87.99,0
688121.0,0.003,-0.185,-0.104,-60.71,-178.11,0
688126.0,-0.1,0.178,0.047,58.35,64.79,0
688131.0,0.169,-0.248,-0.056,-54.34,-108.4,0
688136.0,-0.15,0.243,0.061,56.35,67.77,0
688141.0,-0.447,-0.463,-0.195,-43.54,113.58,0
688146.0,-0.054,0.219,0.147,54.38,20.13,0
688151.0,0.157,-0.219,0.066,-52.18,-67.15,0
688156.0,-0.193,0.234,-0.145,44.08,126.87,0
688161.0,0.138,-0.238,-0.02,-59.73,-98.35,0
688166.0,-0.071,0.255,0.27,42.47,14.72,0
688171.0,0.138,-0.236,-0.363,-31.3,-159.23,0
688176.0,-0.111,0.135,-0.116,40.08,136.13,0
688181.0,-0.334,-0.399,-0.037,-49.85,96.31,0
688186.0,-0.119,0.109,0.253,21.33,25.15,0
688191.0,0.173,-0.118,-0.394,-15.39,-156.23,0
688196.0,-0.102,0.102,0.04,42.96,68.73,0
688201.0,0.19,-0.039,0.023,-11.63,-83.13,0
688206.0,-0.138,0.447,0.111,68.35,51.03,0
688211.0,0.212,-0.451,-0.408,-44.47,-152.58,0
688216.0,-0.284,0.313,0.088,46.45,72.86,0
688221.0,-0.315,-0.351,0.049,-47.72,81.12,0
688226.0,-0.135,0.255,0.066,59.43,64.02,0
688231.0,0.262,-0.351,-0.387,-36.91,-145.87,0
688236.0,-0.143,0.324,-0.078,63.42,118.57,0
688241.0,0.303,-0.327,-0.207,-41.7,-124.36,0
688246.0,-0.152,0.43,0.083,68.05,61.46,0
688251.0,-0.516,-0.427,-0.25,-36.69,115.85,0
688256.0,0.207,0.301,-0.006,55.44,-91.61,0
688261.0,-0.349,-0.343,-0.236,-39.23,124.07,0
688266.0,0.193,0.344,-0.006,60.72,-91.73,0
688271.0,-0.358,-0.384,-0.183,-43.69,117.07,0
688276.0,0.303,0.195,0.174,29.22,-60.15,0
688281.0,-0.301,-0.233,-0.284,-29.45,133.33,0
688286.0,0.264,0.351,-0.008,52.98,-91.78,0
688291.0,-0.416,-0.253,-0.066,-30.97,98.98,0
688296.0,0.324,0.226,0.248,29.01,-52.59,0
688301.0,-0.332,-0.379,-0.286,-40.9,130.76,0
688306.0,0.195,0.404,-0.063,63.07,-107.98,0
688311.0,-0.375,-0.351,-0.195,-39.69,117.48,0
688316.0,0.238,0.392,0.109,56.22,-65.38,0
688321.0,-0.349,-0.391,-0.274,-41.44,128.17,0
688326.0,0.267,0.332,0.004,51.18,-89.19,0
688331.0,-0.293,-0.257,-0.097,-39.78,108.26,0
688336.0,0.171,0.198,-0.027,48.76,-99.09,0
688341.0,-0.298,-0.229,-0.236,-31.02,128.32,0
688346.0,0.197,0.274,0.068,52.7,-70.89,0
688351.0,-0.449,-0.202,-0.226,-21.91,116.72,0
688356.0,0.205,0.121,-0.02,30.48,-95.64,0
688361.0,-0.439,-0.281,-0.245,-29.2,119.16,0
688366.0,0.154,0.368,0.073,65.09,-64.62,0
688371.0,-0.423,-0.274,-0.346,-26.65,129.28,0
688376.0,0.19,0.284,-0.011,56.13,-93.19,0
688381.0,-0.277,-0.37,-0.183,-48.11,123.48,0
688386.0,0.152,0.322,0.064,62.92,-67.28,0
688391.0,-0.408,-0.26,-0.451,-23.11,137.85,0
688396.0,0.207,0.274,0.056,51.97,-74.75,0
688401.0,-0.286,-0.324,-0.102,-46.88,109.54,0
688406.0,0.164,0.257,0.044,56.6,-74.82,0
688411.0,-0.305,-0.126,-0.3,-16.34,134.52,0
688416.0,0.152,0.262,0.064,57.88,-67.28,0
688421.0,-0.241,-0.315,-0.145,-48.25,121.0,0
688426.0,0.097,0.291,0.056,68.94,-59.76,0
688431.0,-0.325,-0.25,-0.281,-30.22,130.9,0
688436.0,0.135,0.265,0.04,61.98,-73.64,0
688441.0,-0.248,-0.351,-0.207,-47.36,129.85,0
688446.0,0.066,0.238,-0.039,72.19,-120.92,0
688451.0,-0.253,-0.166,-0.255,-24.86,135.23,0
688456.0,0.097,0.334,0.114,65.9,-40.37,0
688461.0,-0.202,-0.286,-0.231,-42.97,138.75,0
688466.0,0.154,0.286,-0.14,53.96,-132.2,0
688471.0,-0.26,-0.293,-0.214,-41.04,129.48,0
688476.0,0.169,0.298,0.121,55.15,-54.32,0
688481.0,-0.332,-0.279,-0.26,-33.5,128.04,0
688486.0,0.042,0.224,-0.066,70.84,-147.56,0
688491.0,-0.157,-0.162,-0.197,-32.64,141.5,0
688496.0,-0.004,0.32,-0.032,84.22,173.35,0
688501.0,-0.243,-0.315,-0.31,-38.63,141.88,0
688506.0,0.044,0.159,0.064,64.08,-34.75,0
688511.0,-0.222,-0.176,-0.188,-31.2,130.28,0
688516.0,0.035,0.159,-0.085,60.1,-157.84,0
688521.0,-0.286,-0.123,-0.42,-13.63,145.72,0
688526.0,0.09,0.19,-0.023,64.11,-104.14,0
688531.0,-0.119,-0.205,-0.011,-59.79,95.11,0
688536.0,0.075,0.392,0.15,66.82,-26.67,0
688541.0,-0.281,-0.372,-0.487,-33.49,149.98,0
688546.0,0.109,0.356,-0.102,67.29,-133.04,0
688551.0,-0.238,-0.31,-0.042,-52.02,99.93,0
688556.0,-0.018,0.358,0.147,67.47,7.01,0
688561.0,-0.226,-0.296,-0.291,-38.74,142.09,0
688566.0,0.123,0.224,-0.056,58.86,-114.49,0
688571.0,-0.226,-0.212,-0.269,-31.05,139.93,0
688576.0,0.011,0.255,0.009,86.94,-51.18,0
688581.0,-0.159,-0.329,-0.145,-56.81,132.24,0
688586.0,0.07,0.353,0.14,66.05,-26.68,0
688591.0,-0.138,-0.329,-0.212,-52.49,146.94,0
688596.0,0.047,0.327,0.013,81.58,-74.01,0
688601.0,-0.179,-0.317,-0.185,-50.94,136.08,0
688606.0,0.044,0.442,0.121,73.74,-20.03,0
688611.0,-0.147,-0.312,-0.14,-56.95,133.5,0
688616.0,0.035,0.274,-0.047,78.07,-143.4,0
688621.0,-0.15,-0.389,-0.305,-48.85,153.85,0
688626.0,0.047,0.222,0.14,56.3,-18.36,0
688631.0,-0.126,-0.13,-0.087,-40.42,124.73,0
688636.0,-0.042,0.301,-0.058,76.52,144.29,0
688641.0,-0.133,-0.25,-0.334,-34.84,158.27,0
688646.0,0.03,0.269,0.064,75.39,-25.08,0
688651.0,-0.04,-0.312,-0.221,-54.25,169.84,0
688656.0,-0.001,0.363,-0.003,89.42,158.43,0
688661.0,-0.114,-0.396,-0.056,-72.23,116.23,0
688666.0,-0.061,0.2,0.035,70.59,60.33,0
688671.0,-0.126,-0.274,-0.123,-57.28,134.38,0
688676.0,-0.109,0.473,0.037,76.3,71.14,0
688681.0,-0.1,-0.217,-0.054,-62.43,118.36,0
688686.0,0.049,0.238,0.119,61.69,-22.4,0
688691.0,-0.076,-0.37,-0.264,-53.37,164.05,0
688696.0,0.042,0.267,0.016,80.52,-69.36,0
688701.0,-0.035,-0.451,-0.102,-76.61,161.05,0
688706.0,-0.04,0.308,0.013,82.26,71.43,0
688711.0,-0.009,-0.396,-0.255,-57.23,178.08,0
688716.0,-0.09,0.368,0.121,67.69,36.61,0
688721.0,-0.054,-0.253,-0.135,-60.05,158.2,0
688726.0,-0.08,0.293,-0.102,66.18,141.65,0
688731.0,0.018,-0.231,-0.126,-61.23,-171.93,0
688736.0,-0.078,0.243,0.183,50.67,23.04,0
688741.0,0.015,-0.422,-0.212,-63.32,-175.84,0
688746.0,-0.059,0.245,-0.07,69.5,140.15,0
688751.0,0.018,-0.226,-0.111,-63.54,-170.9,0
688756.0,0.042,0.255,0.179,54.29,-13.16,0
688761.0,0.013,-0.322,-0.037,-83.06,-160.61,0
688766.0,-0.037,0.353,0.018,83.31,64.08,0
688771.0,0.159,-0.193,-0.183,-38.47,-139.0,0
688776.0,-0.047,0.226,0.19,49.08,13.82,0
688781.0,-0.363,-0.528,-0.193,-52.11,117.95,0
688786.0,-0.176,0.224,0.054,50.56,72.95,0
688791.0,0.087,-0.253,-0.147,-55.89,-149.33,0
688796.0,-0.114,0.358,0.217,55.62,27.71,0
688801.0,-0.056,-0.394,-0.094,-74.39,149.14,0
688806.0,-0.143,0.425,0.174,62.13,39.38,0
688811.0,0.073,-0.391,-0.087,-73.81,-140.13,0
688816.0,-0.15,0.296,0.095,59.07,57.69,0
688821.0,-0.344,-0.334,-0.02,-44.12,93.36,0
688826.0,-0.052,0.317,0.083,72.91,31.96,0
688831.0,0.126,-0.322,-0.281,-46.28,-155.94,0
688836.0,-0.018,0.274,-0.037,81.47,153.88,0
688841.0,0.159,-0.415,-0.173,-60.46,-137.47,0
688846.0,-0.013,0.399,0.09,77.15,8.43,0
688851.0,-0.483,-0.387,-0.327,-33.56,124.09,0
688856.0,0.293,0.38,-0.018,52.27,-93.47,0
688861.0,-0.325,-0.422,-0.123,-50.59,110.78,0
688866.0,0.322,0.427,0.2,48.44,-58.13,0
688871.0,-0.372,-0.451,-0.09,-49.67,103.53,0
688876.0,0.365,0.401,0.111,46.43,-73.01,0
688881.0,-0.301,-0.478,-0.142,-55.14,115.33,0
688886.0,0.298,0.341,0.054,48.42,-79.72,0
688891.0,-0.425,-0.32,-0.111,-36.02,104.65,0
688896.0,0.336,0.277,0.102,38.21,-73.14,0
688901.0,-0.377,-0.346,-0.298,-35.74,128.3,0
688906.0,0.372,0.279,-0.02,36.82,-93.11,0
688911.0,-0.375,-0.415,-0.202,-44.28,118.34,0
688916.0,0.403,0.31,0.246,33.3,-58.66,0
688921.0,-0.293,-0.332,-0.111,-46.57,110.75,0
688926.0,0.24,0.365,0.009,56.62,-87.97,0
688931.0,-0.377,-0.298,-0.121,-36.96,107.75,0
688936.0,0.243,0.224,0.109,40.07,-65.81,0
688941.0,-0.339,-0.322,-0.202,-39.21,120.81,0
688946.0,0.24,0.396,0.04,58.41,-80.63,0
688951.0,-0.454,-0.341,-0.296,-32.2,123.07,0
688956.0,0.267,0.269,0.066,44.43,-76.1,0
688961.0,-0.377,-0.401,-0.257,-41.29,124.29,0
688966.0,0.257,0.32,0.021,51.09,-85.44,0
688971.0,-0.368,-0.229,-0.245,-27.35,123.7,0
688976.0,0.217,0.214,-0.09,42.45,-112.49,0
688981.0,-0.341,-0.343,-0.228,-39.9,123.8,0
688986.0,0.279,0.332,0.078,48.89,-74.37,0
688991.0,-0.365,-0.324,-0.202,-37.84,118.96,0
688996.0,0.255,0.234,0.049,41.98,-79.06,0
689001.0,-0.368,-0.308,-0.202,-36.24,118.8,0
689006.0,0.279,0.32,0.202,42.86,-54.01,0
689011.0,-0.375,-0.262,-0.238,-30.55,122.42,0
689016.0,0.128,0.329,-0.09,64.62,-125.01,0
689021.0,-0.296,-0.384,-0.212,-46.56,125.59,0
689026.0,0.233,0.245,0.138,42.18,-59.42,0
689031.0,-0.461,-0.303,-0.284,-29.22,121.59,0
689036.0,0.183,0.313,0.021,59.49,-83.6,0
689041.0,-0.303,-0.188,-0.207,-27.11,124.33,0
689046.0,0.181,0.277,-0.03,56.51,-99.36,0
689051.0,-0.341,-0.293,-0.264,-34.18,127.76,0
689056.0,0.2,0.32,0.119,53.99,-59.29,0
689061.0,-0.272,-0.339,-0.233,-43.39,130.63,0
689066.0,0.26,0.353,0.016,53.63,-86.53,0
689071.0,-0.416,-0.32,-0.312,-31.58,126.92,0
689076.0,0.19,0.267,0.04,53.96,-78.22,0
689081.0,-0.222,-0.243,-0.214,-38.25,134.01,0
689086.0,0.154,0.281,0.035,60.66,-77.26,0
689091.0,-0.305,-0.209,-0.149,-31.63,116.08,0
689096.0,0.111,0.231,0.143,51.96,-37.94,0
689101.0,-0.231,-0.274,-0.257,-38.39,138.05,0
689106.0,0.195,0.31,-0.018,57.74,-95.22,0
689111.0,-0.37,-0.207,-0.307,-23.28,129.72,0
689116.0,0.015,0.19,-0.058,72.38,-165.25,0
689121.0,-0.262,-0.233,-0.219,-34.33,129.84,0
689126.0,0.133,0.222,-0.063,56.43,-115.49,0
689131.0,-0.332,-0.243,-0.363,-26.3,137.54,0
689136.0,0.068,0.248,0.009,74.53,-82.85,0
689141.0,-0.205,-0.219,-0.147,-40.97,125.68,0
689146.0,0.109,0.308,0.052,68.63,-64.61,0
689151.0,-0.363,-0.255,-0.319,-27.8,131.36,0
689156.0,0.154,0.31,0.085,60.4,-61.1,0
689161.0,-0.25,-0.43,-0.207,-52.91,129.58,0
689166.0,0.173,0.351,0.076,61.67,-66.45,0
689171.0,-0.202,-0.257,-0.157,-45.14,127.73,0
689176.0,0.066,0.392,0.138,68.7,-25.48,0
689181.0,-0.171,-0.305,-0.274,-43.36,147.98,0
689186.0,0.159,0.277,-0.078,57.39,-116.02,0
689191.0,-0.332,-0.276,-0.293,-31.98,131.46,0
689196.0,0.051,0.339,0.076,74.91,-34.18,0
689201.0,-0.183,-0.288,-0.114,-53.22,121.78,0
689206.0,0.023,0.214,0.011,83.32,-64.17,0
689211.0,-0.279,-0.243,-0.353,-28.36,141.67,0
689216.0,0.068,0.313,-0.001,77.71,-90.87,0
689221.0,-0.289,-0.31,-0.262,-38.49,132.23,0
689226.0,0.066,0.284,-0.023,76.25,-108.98,0
689231.0,-0.198,-0.207,-0.238,-33.78,140.29,0
689236.0,0.078,0.253,0.037,71.18,-64.36,0
689241.0,-0.224,-0.382,-0.305,-45.25,143.71,0
689246.0,0.09,0.265,0.088,64.67,-45.67,0
689251.0,-0.265,-0.2,-0.188,-31.62,125.35,0
689256.0,0.018,0.375,0.028,84.98,-32.73,0
689261.0,-0.255,-0.389,-0.011,-56.72,92.38,0
689266.0,0.003,0.329,-0.03,84.8,-173.42,0
689271.0,-0.138,-0.315,-0.231,-49.49,149.16,0
689276.0,-0.009,0.368,-0.001,88.66,96.92,0
689281.0,-0.159,-0.303,-0.25,-45.6,147.49,0
689286.0,0.066,0.341,-0.061,75.29,-132.83,0
689291.0,-0.19,-0.274,-0.164,-47.48,130.7,0
689296.0,-0.035,0.303,0.14,64.5,13.97,0
689301.0,-0.155,-0.389,-0.054,-67.18,109.16,0
689306.0,0.015,0.229,0.004,86.04,-76.31,0
689311.0,-0.248,-0.284,-0.305,-35.81,140.9,0
689316.0,0.039,0.418,0.04,82.38,-44.77,0
689321.0,-0.135,-0.298,-0.114,-59.33,129.98,0
689326.0,0.138,0.303,0.143,56.82,-43.96,0
689331.0,-0.052,-0.332,-0.245,-52.91,168.11,0
689336.0,0.056,0.394,-0.118,71.61,-154.64,0
689341.0,-0.15,-0.348,0.035,-66.17,76.89,0
689346.0,0.09,0.26,0.25,44.34,-19.7,0
689351.0,-0.14,-0.303,-0.09,-61.21,122.58,0
689356.0,-0.164,0.31,-0.135,55.57,129.46,0
689361.0,-0.145,-0.219,-0.209,-40.69,145.29,0
689366.0,-0.042,0.313,0.066,75.94,32.51,0
689371.0,-0.061,-0.296,-0.166,-59.07,159.79,0
689376.0,0.018,0.344,0.14,67.64,-7.23,0
689381.0,-0.305,-0.403,-0.102,-51.41,108.4,0
689386.0,0.051,0.238,0.028,76.25,-61.65,0
689391.0,-0.071,-0.329,-0.142,-64.22,153.55,0
689396.0,-0.047,0.392,0.267,55.29,9.95,0
689401.0,-0.111,-0.274,-0.042,-66.52,110.52,0
689406.0,-0.018,0.279,0.064,76.66,15.9,0
689411.0,-0.119,-0.434,-0.188,-62.92,147.71,0
689416.0,-0.011,0.432,0.176,67.79,3.55,0
689421.0,-0.356,-0.48,-0.152,-51.14,113.12,0
689426.0,-0.006,0.444,0.056,82.72,6.22,0
689431.0,0.08,-0.566,-0.097,-77.49,-140.41,0
689436.0,-0.049,0.437,0.188,66.01,14.67,0
689441.0,0.051,-0.444,-0.118,-73.8,-156.56,0
689446.0,-0.061,0.456,0.071,78.41,40.85,0
689451.0,-0.011,-0.535,-0.128,-76.51,175.12,0
689456.0,0.396,0.449,0.241,44.09,-58.7,0
689461.0,-0.475,-0.456,-0.171,-42.07,109.79,0
689466.0,0.367,0.451,0.1,49.86,-74.84,0
689471.0,-0.337,-0.475,-0.094,-53.66,105.67,0
689476.0,0.442,0.413,0.174,41.04,-68.52,0
689481.0,-0.341,-0.348,-0.231,-40.2,124.07,0
689486.0,0.559,0.372,0.188,32.27,-71.4,0
689491.0,-0.382,-0.509,-0.099,-52.19,104.56,0
689496.0,0.365,0.406,0.066,47.58,-79.75,0
689501.0,-0.439,-0.461,-0.305,-40.74,124.77,0
689506.0,0.262,0.447,0.126,56.94,-64.34,0
689511.0,-0.483,-0.504,-0.145,-45.0,106.69,0
689516.0,0.348,0.382,0.073,47.03,-78.13,0
689521.0,-0.346,-0.439,-0.099,-50.66,105.99,0
689526.0,0.437,0.437,0.159,43.23,-69.95,0
689531.0,-0.406,-0.54,-0.202,-49.96,116.47,0
689536.0,0.454,0.384,0.009,40.27,-88.92,0
689541.0,-0.246,-0.432,-0.025,-60.26,95.81,0
689546.0,0.427,0.514,0.214,47.06,-63.35,0
689551.0,-0.483,-0.499,-0.157,-44.53,107.98,0
689556.0,0.343,0.358,0.107,44.87,-72.74,0
689561.0,-0.406,-0.365,-0.102,-41.1,104.05,0
689566.0,0.224,0.427,0.018,62.3,-85.37,0
689571.0,-0.413,-0.42,-0.26,-40.73,122.14,0
689576.0,0.36,0.236,0.126,31.73,-70.74,0
689581.0,-0.42,-0.329,-0.276,-33.19,123.32,0
689586.0,0.319,0.396,0.073,50.41,-77.1,0
689591.0,-0.439,-0.291,-0.126,-32.47,105.94,0
689596.0,0.36,0.334,0.111,41.54,-72.8,0
689601.0,-0.313,-0.432,-0.176,-50.3,119.35,0
689606.0,0.248,0.449,0.054,60.55,-77.69,0
689611.0,-0.38,-0.415,-0.128,-46.03,108.62,0
689616.0,0.296,0.305,0.009,45.92,-88.34,0
689621.0,-0.408,-0.36,-0.365,-33.34,131.79,0
689626.0,0.281,0.37,-0.001,52.77,-90.21,0
689631.0,-0.368,-0.233,-0.058,-32.08,99.04,0
689636.0,0.31,0.169,0.004,28.59,-89.31,0
689641.0,-0.313,-0.264,-0.25,-33.45,128.65,0
689646.0,0.181,0.317,0.157,52.98,-49.0,0
689651.0,-0.334,-0.26,-0.205,-33.54,121.47,0
689656.0,0.24,0.262,-0.042,47.06,-99.85,0
689661.0,-0.432,-0.312,-0.255,-31.9,120.52,0
689666.0,0.298,0.322,0.164,43.44,-61.14,0
689671.0,-0.281,-0.355,0.013,-51.59,87.29,0
689676.0,0.233,0.329,0.126,51.17,-61.65,0
689681.0,-0.236,-0.351,-0.262,-44.84,137.99,0
689686.0,0.296,0.375,-0.006,51.74,-91.13,0
689691.0,-0.396,-0.358,-0.257,-37.14,122.98,0
689696.0,0.188,0.286,-0.018,56.61,-95.41,0
689701.0,-0.408,-0.195,-0.236,-22.47,119.99,0
689706.0,0.365,0.281,0.116,36.3,-72.33,0
689711.0,-0.456,-0.367,-0.31,-33.67,124.18,0
689716.0,0.236,0.274,-0.018,49.24,-94.32,0
689721.0,-0.234,-0.296,-0.14,-47.35,120.92,0
689726.0,0.2,0.37,0.042,61.11,-78.11,0
689731.0,-0.382,-0.324,-0.195,-37.1,117.04,0
689736.0,0.138,0.26,0.064,59.76,-65.18,0
689741.0,-0.43,-0.238,-0.291,-24.65,124.07,0
689746.0,0.173,0.245,0.028,54.42,-80.93,0
689751.0,-0.432,-0.195,-0.161,-22.91,110.48,0
689756.0,0.039,0.164,-0.025,74.14,-122.41,0
689761.0,-0.296,-0.267,-0.437,-26.83,145.89,0
689766.0,0.149,0.245,-0.027,58.24,-100.38,0
689771.0,-0.301,-0.221,-0.133,-33.97,113.82,0
689776.0,0.195,0.341,0.083,58.17,-67.0,0
689781.0,-0.327,-0.32,-0.398,-31.8,140.63,0
689786.0,0.078,0.36,-0.135,66.62,-150.11,0
689791.0,-0.432,-0.166,-0.243,-18.54,119.33,0
689796.0,0.185,0.262,0.021,54.58,-83.69,0
689801.0,-0.337,-0.358,-0.298,-38.53,131.52,0
689806.0,0.082,0.198,-0.087,58.73,-136.62,0
689811.0,-0.315,-0.197,-0.224,-27.07,125.38,0
689816.0,0.092,0.224,-0.039,65.92,-113.15,0
689821.0,-0.293,-0.274,-0.346,-31.14,139.68,0
689826.0,0.056,0.257,-0.039,75.1,-125.04,0
689831.0,-0.272,-0.229,-0.214,-33.44,128.22,0
689836.0,0.075,0.205,-0.082,61.41,-137.61,0
689841.0,-0.32,-0.25,-0.238,-32.1,126.67,0
689846.0,0.176,0.245,0.04,53.71,-77.29,0
689851.0,-0.353,-0.231,-0.25,-28.08,125.29,0
689856.0,0.114,0.327,-0.018,70.63,-98.91,0
689861.0,-0.253,-0.413,0.131,-55.43,62.67,0
689866.0,0.032,0.329,0.001,84.42,-87.58,0
689871.0,-0.219,-0.264,-0.303,-35.28,144.09,0
689876.0,0.054,0.31,0.066,74.66,-39.14,0
689881.0,-0.301,-0.238,-0.228,-32.24,127.24,0
689886.0,0.193,0.248,-0.011,52.11,-93.15,0
689891.0,-0.293,-0.286,-0.291,-34.7,134.73,0
689896.0,0.018,0.293,0.131,65.8,-7.76,0
689901.0,-0.277,-0.322,0.078,-48.24,74.26,0
689906.0,0.025,0.26,-0.047,78.51,-151.77,0
689911.0,-0.27,-0.264,-0.355,-30.67,142.82,0
689916.0,0.015,0.226,0.025,82.54,-31.33,0
689921.0,-0.205,-0.197,-0.157,-37.44,127.41,0
689926.0,0.142,0.32,0.042,65.1,-73.53,0
689931.0,-0.234,-0.363,-0.284,-44.63,140.52,0
689936.0,-0.028,0.313,-0.133,66.55,168.21,0
689941.0,-0.186,-0.363,0.04,-62.36,77.94,0
689946.0,0.032,0.293,-0.023,82.37,-125.08,0
689951.0,-0.286,-0.209,-0.228,-29.76,128.6,0
689956.0,0.039,0.241,0.068,71.85,-29.91,0
689961.0,-0.272,-0.25,-0.138,-39.38,116.83,0
689966.0,0.099,0.133,0.128,39.35,-37.72,0
689971.0,-0.298,-0.209,-0.169,-31.43,119.48,0
689976.0,-0.035,0.25,0.186,52.95,10.64,0
689981.0,-0.279,-0.554,0.095,-62.0,71.25,0
689986.0,0.14,0.406,0.236,55.95,-30.66,0
689991.0,-0.155,-0.379,-0.176,-58.32,138.68,0
689996.0,-0.009,0.336,0.088,75.35,5.57,0
690001.0,-0.164,-0.296,0.162,-52.06,45.42,0
690006.0,0.114,0.341,0.255,50.7,-23.99,0
690011.0,-0.246,-0.243,-0.147,-40.32,120.92,0
690016.0,-0.009,0.456,0.131,73.99,3.74,0
690021.0,-0.399,-0.478,-0.058,-49.84,98.35,0
690026.0,0.063,0.442,0.147,70.04,-23.24,0
690031.0,-0.08,-0.525,-0.214,-66.48,159.43,0
690036.0,0.063,0.404,0.219,60.51,-16.1,0
690041.0,-0.013,-0.478,-0.085,-79.81,171.07,0
690046.0,0.049,0.471,0.095,77.23,-27.31,0
690051.0,-0.145,-0.506,-0.085,-71.64,120.33,0
690056.0,-0.042,0.353,0.267,52.56,8.95,0
690061.0,-0.389,-0.454,-0.114,-48.21,106.27,0
690066.0,0.336,0.432,0.059,51.7,-80.08,0
690071.0,-0.399,-0.451,-0.07,-48.09,100.02,0
690076.0,0.631,0.473,0.325,33.69,-62.77,0
690081.0,-0.406,-0.523,-0.058,-51.9,98.2,0
690086.0,0.485,0.473,0.145,43.07,-73.34,0
690091.0,-0.418,-0.588,-0.099,-53.84,103.35,0
690096.0,0.454,0.49,0.176,45.18,-68.78,0
690101.0,-0.358,-0.475,-0.061,-52.6,99.65,0
690106.0,0.475,0.463,0.195,42.05,-67.65,0
690111.0,-0.475,-0.542,-0.042,-48.65,95.02,0
690116.0,0.576,0.54,0.286,40.03,-63.56,0
690121.0,-0.351,-0.53,-0.118,-55.07,108.64,0
690126.0,0.451,0.444,0.147,43.1,-71.91,0
690131.0,-0.375,-0.585,-0.063,-57.0,99.58,0
690136.0,0.449,0.427,0.162,41.86,-70.18,0
690141.0,-0.353,-0.442,-0.202,-47.33,119.78,0
690146.0,0.384,0.418,0.14,45.62,-69.95,0
690151.0,-0.43,-0.482,0.035,-48.2,85.36,0
690156.0,0.442,0.461,0.126,45.11,-74.09,0
690161.0,-0.416,-0.463,-0.188,-45.45,114.32,0
690166.0,0.432,0.521,0.097,49.63,-77.33,0
690171.0,-0.49,-0.631,-0.24,-49.14,116.15,0
690176.0,0.363,0.427,0.119,48.25,-71.88,0
690181.0,-0.308,-0.406,0.025,-52.72,85.3,0
690186.0,0.317,0.36,0.064,48.1,-78.66,0
690191.0,-0.439,-0.468,-0.305,-41.18,124.77,0
690196.0,0.408,0.301,0.1,35.59,-76.29,0
690201.0,-0.353,-0.329,0.114,-41.56,72.13,0
690206.0,0.336,0.377,0.102,47.03,-73.14,0
690211.0,-0.571,-0.365,-0.339,-28.8,120.66,0
690216.0,0.348,0.281,0.143,36.79,-67.73,0
690221.0,-0.308,-0.339,0.073,-46.95,76.63,0
690226.0,0.312,0.38,0.013,50.53,-87.56,0
690231.0,-0.466,-0.37,-0.389,-31.36,129.86,0
690236.0,0.446,0.322,0.088,35.3,-78.9,0
690241.0,-0.451,-0.475,-0.123,-45.44,105.26,0
690246.0,0.243,0.518,-0.027,64.76,-96.43,0
690251.0,-0.43,-0.478,-0.228,-44.45,117.99,0
690256.0,0.365,0.411,0.231,43.55,-57.65,0
690261.0,-0.377,-0.461,-0.152,-48.57,111.93,0
690266.0,0.267,0.339,-0.013,51.75,-92.79,0
690271.0,-0.375,-0.324,-0.111,-39.68,106.52,0
690276.0,0.327,0.281,0.109,39.25,-71.53,0
690281.0,-0.26,-0.391,-0.185,-50.79,125.5,0
690286.0,0.389,0.308,0.128,36.92,-71.75,0
690291.0,-0.37,-0.43,-0.147,-47.18,111.68,0
690296.0,0.348,0.348,0.059,44.62,-80.41,0
690301.0,-0.363,-0.377,-0.176,-43.08,115.85,0
690306.0,0.257,0.358,0.143,50.6,-60.99,0
690311.0,-0.401,-0.422,-0.13,-45.05,108.0,0
690316.0,0.238,0.394,0.03,58.65,-82.8,0
690321.0,-0.384,-0.485,-0.149,-49.61,111.25,0
690326.0,0.307,0.473,0.186,52.78,-58.87,0
690331.0,-0.447,-0.449,-0.205,-42.41,114.6,0
690336.0,0.365,0.291,0.001,38.56,-89.79,0
690341.0,-0.389,-0.262,-0.238,-29.87,121.45,0
690346.0,0.267,0.32,-0.027,50.01,-95.86,0
690351.0,-0.423,-0.363,-0.394,-32.12,132.96,0
690356.0,0.26,0.265,0.114,43.03,-66.31,0
690361.0,-0.277,-0.341,-0.008,-50.94,91.7,0
690366.0,0.262,0.396,0.133,53.45,-63.08,0
690371.0,-0.411,-0.353,-0.329,-33.86,128.7,0
690376.0,0.305,0.317,0.042,45.85,-82.15,0
690381.0,-0.303,-0.358,-0.09,-48.55,106.48,0
690386.0,0.26,0.356,0.076,52.75,-73.77,0
690391.0,-0.392,-0.298,-0.296,-31.27,127.04,0
690396.0,0.217,0.229,0.064,45.39,-73.63,0
690401.0,-0.327,-0.391,-0.224,-44.65,124.38,0
690406.0,0.255,0.346,0.042,53.26,-80.63,0
690411.0,-0.382,-0.329,-0.224,-36.63,120.35,0
690416.0,0.236,0.301,0.049,51.3,-78.2,0
690421.0,-0.207,-0.36,-0.171,-53.28,129.53,0
690426.0,0.286,0.193,0.078,33.05,-74.75,0
690431.0,-0.43,-0.343,-0.252,-34.57,120.42,0
690436.0,0.13,0.356,0.1,65.25,-52.63,0
690441.0,-0.301,-0.164,-0.073,-27.92,103.62,0
690446.0,0.284,0.226,0.09,37.27,-72.4,0
690451.0,-0.308,-0.315,-0.178,-41.51,120.07,0
690456.0,0.169,0.229,-0.049,52.49,-106.18,0
690461.0,-0.27,-0.253,0.159,-38.89,59.4,0
690466.0,0.219,0.2,0.013,42.36,-86.52,0
690471.0,-0.389,-0.248,-0.418,-23.46,137.02,0
690476.0,0.058,0.214,-0.118,58.37,-153.7,0
690481.0,-0.274,-0.14,-0.133,-24.67,115.82,0
690486.0,0.128,0.31,0.128,59.71,-44.93,0
690491.0,-0.423,-0.336,-0.36,-31.2,130.43,0
690496.0,0.085,0.195,-0.092,57.33,-137.33,0
690501.0,-0.279,-0.284,0.219,-38.63,51.85,0
690506.0,0.152,0.363,0.059,65.82,-68.83,0
690511.0,-0.365,-0.178,-0.219,-22.72,120.93,0
690516.0,0.195,0.155,0.023,38.2,-83.3,0
690521.0,-0.255,-0.418,-0.334,-44.83,142.61,0
690526.0,0.111,0.279,-0.051,66.31,-114.78,0
690531.0,-0.305,-0.229,-0.14,-34.23,114.61,0
690536.0,0.094,0.442,0.131,69.96,-35.85,0
690541.0,-0.27,-0.238,-0.128,-38.6,115.39,0
690546.0,0.188,0.389,0.021,64.11,-83.77,0
690551.0,-0.258,-0.324,-0.205,-44.6,128.46,0
690556.0,0.183,0.305,0.145,52.6,-51.61,0
690561.0,-0.171,-0.291,-0.193,-48.45,138.34,0
690566.0,0.183,0.176,-0.049,42.9,-104.97,0
690571.0,-0.219,-0.154,-0.202,-27.37,132.68,0
690576.0,0.032,0.253,0.195,51.93,-9.35,0
690581.0,-0.36,-0.351,0.011,-44.2,88.26,0
690586.0,0.133,0.207,0.092,52.03,-55.17,0
690591.0,-0.262,-0.269,-0.054,-45.16,101.57,0
690596.0,0.133,0.303,0.174,54.18,-37.38,0
690601.0,-0.188,-0.3,-0.023,-57.76,96.85,0
690606.0,0.128,0.236,0.047,59.99,-69.89,0
690611.0,-0.243,-0.224,-0.097,-40.53,111.71,0
690616.0,0.152,0.253,0.179,47.15,-40.39,0
690621.0,-0.372,-0.511,-0.094,-53.06,104.22,0
690626.0,0.015,0.32,-0.015,86.1,-135.0,0
690631.0,-0.169,-0.485,0.066,-69.48,68.66,0
690636.0,0.047,0.506,0.382,52.77,-6.94,0
690641.0,-0.262,-0.473,-0.049,-60.56,100.56,0
690646.0,0.061,0.329,0.032,78.16,-61.92,0
690651.0,-0.327,-0.552,0.131,-57.46,68.22,0
690656.0,0.099,0.53,0.404,51.92,-13.81,0
690661.0,-0.341,-0.308,-0.152,-39.46,113.99,0
690666.0,0.351,0.279,-0.011,38.5,-91.73,0
690671.0,-0.375,-0.523,0.03,-54.29,85.41,0
690676.0,0.494,0.401,0.164,37.6,-71.63,0
690681.0,-0.399,-0.382,-0.166,-41.47,112.63,0
690686.0,0.446,0.427,0.071,43.4,-80.99,0
690691.0,-0.423,-0.528,0.011,-51.3,88.52,0
690696.0,0.506,0.368,0.056,35.82,-83.64,0
690701.0,-0.317,-0.427,-0.03,-53.27,95.36,0
690706.0,0.384,0.42,0.353,38.84,-47.39,0
690711.0,-0.322,-0.513,0.095,-56.81,73.61,0
690716.0,0.434,0.365,0.076,39.63,-80.13,0
690721.0,-0.36,-0.411,-0.13,-46.96,109.88,0
690726.0,0.427,0.363,0.179,38.08,-67.32,0
690731.0,-0.392,-0.461,-0.049,-49.42,97.12,0
690736.0,0.561,0.399,0.219,33.49,-68.66,0
690741.0,-0.43,-0.48,-0.08,-47.66,100.55,0
690746.0,0.37,0.439,0.016,49.9,-87.57,0
690751.0,-0.432,-0.478,-0.123,-46.73,105.9,0
690756.0,0.466,0.413,0.293,36.89,-57.77,0
690761.0,-0.332,-0.473,-0.049,-54.65,98.39,0
690766.0,0.418,0.332,0.001,38.46,-89.81,0
690771.0,-0.384,-0.466,-0.181,-47.63,115.16,0
690776.0,0.528,0.478,0.272,38.82,-62.74,0
690781.0,-0.408,-0.583,0.023,-54.94,86.79,0
690786.0,0.382,0.485,0.088,51.07,-77.08,0
690791.0,-0.473,-0.578,-0.126,-49.75,104.86,0
690796.0,0.41,0.521,0.193,48.95,-64.83,0
690801.0,-0.432,-0.583,-0.195,-50.87,114.27,0
690806.0,0.355,0.413,0.147,47.03,-67.47,0
690811.0,-0.408,-0.499,-0.066,-50.35,99.14,0
690816.0,0.537,0.535,0.147,43.85,-74.66,0
690821.0,-0.339,-0.521,-0.248,-51.12,126.15,0
690826.0,0.485,0.396,0.14,38.15,-73.86,0
690831.0,-0.463,-0.537,-0.14,-47.99,106.8,0
690836.0,0.48,0.552,0.076,48.65,-81.05,0
690841.0,-0.49,-0.458,-0.087,-42.66,100.1,0
690846.0,0.317,0.408,0.234,46.03,-53.62,0
690851.0,-0.416,-0.686,-0.135,-57.5,108.01,0
690856.0,0.329,0.504,0.123,55.11,-69.43,0
690861.0,-0.428,-0.353,-0.099,-38.82,103.06,0
690866.0,0.377,0.368,0.14,42.43,-69.59,0
690871.0,-0.389,-0.521,-0.221,-49.31,119.62,0
690876.0,0.48,0.406,-0.02,40.2,-92.41,0
690881.0,-0.387,-0.418,-0.149,-45.21,111.13,0
690886.0,0.444,0.468,0.169,44.58,-69.17,0
690891.0,-0.447,-0.566,-0.305,-46.3,124.33,0
690896.0,0.355,0.377,0.116,45.25,-71.88,0
690901.0,-0.363,-0.305,0.009,-40.06,88.65,0
690906.0,0.319,0.351,0.073,46.95,-77.1,0
690911.0,-0.382,-0.487,-0.164,-49.53,113.21,0
690916.0,0.43,0.308,0.418,27.18,-45.79,0
690921.0,-0.428,-0.406,-0.087,-42.92,101.53,0
690926.0,0.36,0.535,-0.157,53.73,-113.51,0
690931.0,-0.339,-0.425,-0.224,-46.3,123.42,0
690936.0,0.456,0.396,0.238,37.61,-62.4,0
690941.0,-0.368,-0.499,-0.248,-48.39,123.96,0
690946.0,0.262,0.48,0.028,61.24,-83.97,0
690951.0,-0.468,-0.497,0.001,-46.69,89.83,0
690956.0,0.307,0.389,0.222,45.75,-54.22,0
690961.0,-0.408,-0.451,-0.272,-42.62,123.63,0
690966.0,0.365,0.384,0.042,46.29,-83.43,0
690971.0,-0.356,-0.346,-0.068,-43.68,100.83,0
690976.0,0.463,0.289,0.109,31.24,-76.74,0
690981.0,-0.337,-0.449,-0.281,-45.66,129.88,0
690986.0,0.367,0.485,0.183,49.75,-63.48,0
690991.0,-0.368,-0.449,0.009,-50.67,88.67,0
690996.0,0.303,0.353,0.042,49.13,-82.09,0
691001.0,-0.418,-0.449,-0.355,-39.29,130.37,0
691006.0,0.274,0.341,0.1,49.5,-70.04,0
691011.0,-0.442,-0.377,-0.087,-39.93,101.17,0
691016.0,0.339,0.344,0.009,45.41,-88.56,0
691021.0,-0.349,-0.355,-0.25,-39.65,125.66,0
691026.0,0.341,0.435,0.179,48.47,-62.37,0
691031.0,-0.337,-0.437,-0.085,-51.53,104.15,0
691036.0,0.269,0.327,0.042,50.19,-81.12,0
691041.0,-0.313,-0.372,-0.178,-45.97,119.69,0
691046.0,0.243,0.404,0.121,56.08,-63.5,0
691051.0,-0.483,-0.32,-0.209,-31.28,113.45,0
691056.0,0.264,0.286,-0.056,46.64,-101.98,0
691061.0,-0.399,-0.269,-0.164,-31.99,112.34,0
691066.0,0.286,0.272,0.128,40.94,-65.84,0
691071.0,-0.396,-0.324,-0.334,-32.04,130.1,0
691076.0,0.171,0.248,-0.181,44.9,-136.56,0
691081.0,-0.308,-0.274,-0.197,-36.85,122.67,0
691086.0,0.305,0.346,0.157,45.24,-62.77,0
691091.0,-0.404,-0.264,-0.286,-28.13,125.32,0
691096.0,0.147,0.219,-0.228,38.89,-147.23,0
691101.0,-0.38,-0.315,0.231,-35.3,58.66,0
691106.0,0.159,0.387,0.157,59.98,-45.38,0
691111.0,-0.396,-0.43,-0.147,-45.46,110.36,0
691116.0,0.284,0.384,0.119,51.35,-67.29,0
691121.0,-0.298,-0.401,-0.171,-49.39,119.83,0
691126.0,0.303,0.324,0.054,46.54,-79.88,0
691131.0,-0.38,-0.329,-0.255,-35.75,123.87,0
691136.0,0.25,0.281,0.169,43.0,-55.95,0
691141.0,-0.277,-0.008,-0.037,-1.7,97.61,0
691146.0,0.181,0.236,0.023,52.34,-82.77,0
691151.0,-0.406,-0.248,-0.315,-25.75,127.78,0
691156.0,0.231,0.245,0.109,43.87,-64.71,0
691161.0,-0.25,-0.243,-0.145,-40.03,120.03,0
691166.0,0.221,0.375,0.042,58.99,-79.24,0
691171.0,-0.293,-0.375,-0.322,-40.7,137.64,0
691176.0,0.142,0.286,0.042,62.59,-73.53,0
691181.0,-0.27,-0.006,0.277,-0.88,44.25,0
691186.0,0.171,0.375,0.174,56.96,-44.55,0
691191.0,-0.387,-0.229,-0.114,-29.55,106.36,0
691196.0,0.183,0.164,0.08,39.38,-66.29,0
691201.0,-0.296,-0.193,0.126,-30.93,66.95,0
691206.0,0.135,0.21,0.214,39.59,-32.21,0
691211.0,-0.272,-0.188,0.013,-34.61,87.19,0
691216.0,0.044,0.26,0.121,63.62,-20.03,0
691221.0,-0.296,-0.279,0.03,-43.16,84.19,0
691226.0,0.145,0.152,0.229,29.33,-32.31,0
691231.0,-0.387,-0.245,0.19,-29.64,63.78,0
691236.0,0.152,0.31,0.162,54.42,-43.19,0
691241.0,-0.286,-0.288,-0.149,-41.77,117.57,0
691246.0,0.058,0.119,0.2,29.64,-16.3,0
691251.0,-0.14,-0.363,0.313,-46.63,24.16,0
691256.0,0.109,0.42,0.04,74.6,-69.97,0
691261.0,-0.394,-0.418,-0.317,-39.55,128.82,0
691266.0,0.37,0.435,0.193,46.18,-62.45,0
691271.0,-0.389,-0.446,0.224,-44.83,60.08,0
691276.0,0.47,0.404,0.114,39.82,-76.39,0
691281.0,-0.377,-0.42,-0.169,-45.47,114.08,0
691286.0,0.427,0.303,0.147,33.84,-70.96,0
691291.0,-0.238,-0.394,0.047,-58.33,78.88,0
691296.0,0.494,0.313,0.097,31.82,-78.88,0
691301.0,-0.25,-0.25,0.085,-43.41,71.21,0
691306.0,0.477,0.217,0.337,20.36,-54.82,0
