time_ms,accel_x,accel_y,accel_z,pitch,roll,sync
1273326.0,-0.013,-0.014,0.043,-16.99,16.42,0
1273331.0,0.014,0.032,0.034,41.05,-21.89,0
1273336.0,-0.03,0.048,0.005,58.27,80.34,0
1273341.0,0.011,-0.016,0.027,-29.33,-22.8,0
1273346.0,0.018,-0.002,-0.009,-5.09,-116.96,0
1273351.0,-0.015,-0.033,-0.002,-65.08,98.08,0
1273356.0,0.002,0.003,0.024,6.95,-3.78,0
1273361.0,-0.001,-0.002,0.015,-7.15,3.13,0
1273366.0,-0.01,0.013,0.015,34.97,35.39,0
1273371.0,-0.003,-0.009,-0.04,-12.53,175.49,0
1273376.0,0.035,-0.016,0.017,-22.55,-64.17,0
1273381.0,-0.025,0.003,-0.002,6.78,94.97,0
1273386.0,-0.032,-0.023,-0.064,-18.02,153.63,0
1273391.0,-0.006,-0.021,-0.033,-31.88,170.47,0
1273396.0,0.004,-0.011,0.022,-27.26,-10.38,0
1273401.0,-0.008,-0.007,0.003,-38.24,71.73,0
1273406.0,0.014,-0.009,0.027,-16.82,-27.04,0
1273411.0,0.006,0.008,-0.019,21.2,-161.35,0
1273416.0,0.014,0.013,0.01,36.8,-54.11,0
1273421.0,0.016,0.005,0.019,12.02,-39.45,0
1273426.0,0.021,-0.014,0.015,-28.55,-54.86,0
1273431.0,-0.003,0.01,-0.002,69.2,124.0,0
1273436.0,-0.013,-0.019,0.003,-54.96,78.34,0
1273441.0,-0.022,-0.009,-0.024,-15.47,136.69,0
1273446.0,0.018,0.025,0.024,38.9,-37.2,0
1273451.0,-0.001,-0.004,0.012,-19.07,3.74,0
1273456.0,-0.008,0.02,-0.019,43.84,157.12,0
1273461.0,0.026,0.025,0.017,38.61,-56.35,0
1273466.0,-0.018,0.029,-0.019,48.62,137.13,0
1273471.0,0.004,0.003,-0.031,5.42,-172.64,0
1273476.0,-0.025,-0.033,-0.007,-52.06,105.67,0
1273481.0,0.023,0.015,0.027,22.95,-41.05,0
1273486.0,0.028,0.013,-0.036,15.46,-141.94,0
1273491.0,-0.013,-0.026,-0.002,-63.33,99.57,0
1273496.0,0.009,-0.014,0.0,-57.54,-88.43,0
1273501.0,0.006,-0.007,0.031,-11.69,-11.51,0
1273506.0,0.004,0.001,-0.002,7.02,-118.35,0
1273511.0,-0.02,-0.009,0.024,-16.05,39.52,0
1273516.0,0.014,-0.002,0.003,-7.57,-79.01,0
1273521.0,0.023,-0.023,0.029,-32.24,-38.62,0
1273526.0,0.011,-0.011,-0.031,-19.16,-160.11,0
1273531.0,0.023,0.02,0.019,33.14,-50.04,0
1273536.0,0.021,-0.009,0.029,-14.2,-35.61,0
1273541.0,0.018,0.017,-0.021,31.62,-139.26,0
1273546.0,-0.018,-0.009,0.024,-16.79,35.98,0
1273551.0,-0.008,-0.011,-0.021,-26.64,159.47,0
1273556.0,0.026,-0.019,0.01,-34.2,-68.97,0
1273561.0,-0.003,0.015,-0.038,21.34,175.21,0
1273566.0,0.002,-0.028,0.029,-44.16,-3.15,0
1273571.0,-0.015,0.041,0.007,67.75,63.92,0
1273576.0,0.009,0.015,-0.024,30.56,-159.68,0
1273581.0,-0.001,0.001,0.027,1.2,1.72,0
1273586.0,0.011,-0.033,-0.017,-58.82,-145.93,0
1273591.0,-0.013,0.003,0.012,9.49,46.28,0
1273596.0,-0.001,0.008,-0.012,33.36,176.11,0
1273601.0,-0.01,-0.031,0.015,-59.62,35.39,0
1273606.0,-0.02,0.008,-0.036,10.72,150.78,0
1273611.0,0.006,-0.021,0.003,-71.79,-67.57,0
1273616.0,-0.001,0.008,0.019,21.74,2.36,0
1273621.0,0.045,-0.004,0.007,-5.33,-80.57,0
1273626.0,0.004,0.001,-0.012,2.58,-161.21,0
1273631.0,0.026,-0.023,-0.026,-32.64,-135.62,0
1273636.0,0.023,-0.035,-0.012,-53.72,-116.88,0
1273641.0,-0.022,0.017,-0.007,36.51,107.26,0
1273646.0,-0.015,0.02,0.007,49.42,63.92,0
1273651.0,-0.044,-0.021,-0.033,-20.86,127.17,0
1273656.0,-0.039,-0.016,-0.076,-10.69,152.89,0
1273661.0,-0.01,0.005,-0.072,4.23,171.75,0
1273666.0,0.052,0.027,0.046,21.25,-48.6,0
1273671.0,0.011,-0.035,0.067,-27.4,-9.43,0
1273676.0,0.045,-0.016,0.079,-10.1,-29.42,0
1273681.0,0.026,0.013,0.022,20.47,-49.53,0
1273686.0,-0.027,0.029,-0.06,24.09,155.53,0
1273691.0,-0.018,0.005,-0.11,2.75,170.92,0
1273696.0,-0.027,-0.045,-0.043,-41.53,147.66,0
1273701.0,0.004,0.027,0.017,57.01,-13.21,0
1273706.0,0.033,-0.016,-0.002,-26.29,-93.77,0
1273711.0,0.006,0.013,0.055,12.68,-6.58,0
1273716.0,-0.008,-0.023,0.034,-33.98,13.3,0
1273721.0,0.021,0.01,-0.012,23.04,-119.48,0
1273726.0,0.011,0.005,-0.019,13.68,-149.43,0
1273731.0,-0.008,0.017,-0.026,32.4,162.99,0
1273736.0,-0.022,0.003,0.015,6.31,56.83,0
1273741.0,0.002,-0.019,-0.002,-81.8,-143.45,0
1273746.0,0.006,0.01,-0.014,33.18,-155.68,0
1273751.0,0.018,-0.007,-0.026,-11.73,-144.88,0
1273756.0,0.028,0.008,-0.002,15.45,-94.41,0
1273761.0,0.026,0.034,0.015,49.2,-60.23,0
1273766.0,0.011,0.003,-0.024,6.43,-154.76,0
1273771.0,0.03,0.015,-0.002,26.15,-94.06,0
1273776.0,0.004,0.022,-0.002,78.41,-118.35,0
1273781.0,0.009,0.025,0.024,43.6,-19.95,0
1273786.0,0.011,0.032,-0.009,65.32,-129.88,0
1273791.0,-0.001,0.01,0.0,85.3,73.24,0
1273796.0,0.002,-0.011,-0.017,-34.52,-174.48,0
1273801.0,-0.008,-0.011,0.012,-38.04,33.17,0
1273806.0,-0.013,-0.047,0.005,-73.83,68.5,0
1273811.0,-0.006,0.029,-0.024,50.26,166.74,0
1273816.0,0.004,0.025,-0.014,59.08,-164.22,0
1273821.0,-0.022,-0.016,-0.014,-31.5,122.3,0
1273826.0,-0.001,0.003,-0.026,6.45,178.25,0
1273831.0,0.016,0.008,0.019,17.13,-39.45,0
1273836.0,-0.003,-0.009,-0.04,-12.53,175.49,0
1273841.0,0.014,-0.011,-0.012,-32.47,-130.85,0
1273846.0,-0.003,-0.007,-0.024,-15.48,172.33,0
1273851.0,-0.001,0.005,0.012,23.6,3.74,0
1273856.0,0.018,0.001,0.029,0.93,-32.36,0
1273861.0,0.002,-0.016,-0.021,-37.17,-175.72,0
1273866.0,0.014,0.013,-0.033,19.22,-157.82,0
1273871.0,-0.01,0.001,-0.019,1.48,151.25,0
1273876.0,0.014,-0.009,0.022,-19.36,-31.91,0
1273881.0,0.016,0.022,-0.002,53.92,-97.68,0
1273886.0,0.014,0.003,0.015,8.43,-42.89,0
1273891.0,-0.022,0.029,-0.019,45.01,130.24,0
1273896.0,0.016,0.027,0.0,59.31,-89.14,0
1273901.0,-0.025,0.013,-0.031,17.57,141.3,0
1273906.0,0.002,0.027,-0.012,66.24,-172.25,0
1273911.0,-0.018,-0.011,-0.043,-13.84,157.72,0
1273916.0,-0.01,-0.028,0.024,-46.95,23.22,0
1273921.0,0.011,0.027,-0.017,53.44,-145.93,0
1273926.0,0.006,0.017,0.007,60.52,-40.7,0
1273931.0,-0.02,-0.028,0.024,-41.94,39.52,0
1273936.0,-0.001,0.027,-0.012,66.39,176.11,0
1273941.0,-0.008,0.008,-0.064,6.8,172.94,0
1273946.0,-0.006,-0.007,0.01,-30.39,29.64,0
1273951.0,-0.008,0.005,-0.017,16.25,154.21,0
1273956.0,0.03,-0.004,-0.019,-6.75,-121.95,0
1273961.0,-0.008,-0.023,-0.002,-70.53,105.1,0
1273966.0,0.021,-0.002,-0.019,-3.74,-132.35,0
1273971.0,-0.003,-0.004,-0.017,-14.11,169.06,0
1273976.0,-0.001,0.005,0.015,20.08,3.13,0
1273981.0,0.006,0.001,0.007,3.27,-40.7,0
1273986.0,-0.013,0.025,0.029,37.74,23.79,0
1273991.0,0.016,0.01,-0.024,19.53,-146.04,0
1273996.0,-0.013,-0.007,0.003,-26.93,78.34,0
1274001.0,-0.018,0.013,-0.064,10.63,164.75,0
1274006.0,0.016,-0.016,-0.009,-41.22,-120.33,0
1274011.0,-0.022,-0.004,-0.028,-6.66,141.89,0
1274016.0,-0.025,0.02,0.005,37.98,78.51,0
1274021.0,-0.006,0.003,0.005,21.45,48.01,0
1274026.0,0.002,0.001,-0.04,0.79,-177.74,0
1274031.0,0.009,-0.004,-0.012,-16.1,-143.19,0
1274036.0,0.021,-0.002,0.01,-4.57,-64.68,0
1274041.0,0.021,-0.004,0.0,-11.52,-89.34,0
1274046.0,0.014,0.008,-0.002,29.4,-99.02,0
1274051.0,-0.022,-0.004,0.019,-8.14,49.05,0
1274056.0,0.011,0.041,0.017,63.75,-33.31,0
1274061.0,-0.001,-0.004,-0.012,-19.79,176.11,0
1274066.0,0.002,-0.007,-0.028,-13.07,-176.79,0
1274071.0,0.009,-0.002,0.012,-6.96,-35.71,0
1274076.0,-0.02,0.01,-0.014,22.52,125.3,0
1274081.0,-0.003,0.02,0.024,38.94,7.52,0
1274086.0,0.002,0.01,0.031,17.89,-2.91,0
1274091.0,-0.018,0.005,0.034,8.0,27.48,0
1274096.0,0.006,-0.004,-0.007,-24.16,-137.39,0
1274101.0,0.002,0.015,-0.014,46.39,-173.55,0
1274106.0,0.009,0.015,-0.005,56.48,-117.39,0
1274111.0,-0.008,0.001,-0.014,1.97,150.53,0
1274116.0,0.014,0.013,-0.007,39.43,-117.1,0
1274121.0,0.004,-0.021,0.034,-31.69,-6.74,0
1274126.0,0.018,-0.004,-0.04,-5.44,-155.6,0
1274131.0,0.014,0.008,-0.012,23.35,-130.85,0
1274136.0,0.011,-0.009,-0.026,-17.62,-156.82,0
1274141.0,0.009,0.036,0.017,62.32,-27.31,0
1274146.0,0.023,-0.002,-0.005,-4.45,-101.12,0
1274151.0,0.006,0.017,0.015,47.37,-23.61,0
1274156.0,-0.006,0.025,-0.002,76.27,111.08,0
1274161.0,0.026,0.017,0.007,33.07,-73.79,0
1274166.0,0.014,0.001,-0.064,0.49,-168.1,0
1274171.0,0.011,-0.031,0.019,-53.79,-29.95,0
1274176.0,0.006,0.001,-0.007,3.39,-137.39,0
1274181.0,0.023,-0.016,0.031,-22.57,-36.42,0
1274186.0,0.006,0.02,0.022,40.96,-16.33,0
1274191.0,0.016,0.015,0.007,40.29,-65.06,0
1274196.0,-0.003,-0.014,0.007,-59.66,23.27,0
1274201.0,0.004,0.01,-0.019,27.67,-168.09,0
1274206.0,0.009,-0.021,0.022,-41.78,-21.94,0
1274211.0,0.016,0.01,-0.036,14.54,-155.89,0
1274216.0,0.006,0.02,0.017,47.35,-20.58,0
1274221.0,0.026,0.008,-0.031,10.93,-140.41,0
1274226.0,-0.001,0.025,0.003,83.59,16.85,0
1274231.0,-0.018,-0.004,0.003,-13.4,81.46,0
1274236.0,-0.015,-0.028,0.027,-42.64,29.71,0
1274241.0,0.004,-0.007,-0.045,-8.3,-174.96,0
1274246.0,0.011,0.032,0.012,62.42,-42.46,0
1274251.0,-0.001,0.003,0.022,7.71,2.1,0
1274256.0,0.002,-0.004,-0.019,-12.56,-175.18,0
1274261.0,0.04,0.003,-0.021,3.73,-118.1,0
1274266.0,-0.003,-0.004,-0.014,-16.28,167.26,0
1274271.0,-0.003,-0.002,-0.012,-8.59,164.78,0
1274276.0,-0.008,0.005,-0.021,13.22,159.47,0
1274281.0,0.004,-0.009,0.019,-24.49,-11.63,0
1274286.0,0.002,0.001,0.034,0.95,-2.71,0
1274291.0,0.009,-0.007,0.0,-37.03,-88.43,0
1274296.0,0.011,-0.021,0.024,-38.24,-24.8,0
1274301.0,0.011,0.003,-0.002,14.55,-100.91,0
1274306.0,-0.003,0.001,0.017,1.85,10.64,0
1274311.0,0.004,0.01,-0.026,21.0,-171.31,0
1274316.0,0.035,0.01,-0.014,14.99,-111.91,0
1274321.0,-0.006,-0.009,0.022,-21.85,14.38,0
1274326.0,0.014,0.017,-0.024,32.38,-150.21,0
1274331.0,0.006,0.017,-0.009,56.85,-145.63,0
1274336.0,0.014,0.001,-0.021,1.27,-147.51,0
1274341.0,0.033,-0.002,0.007,-3.13,-77.22,0
1274346.0,0.016,0.039,-0.007,65.88,-113.5,0
1274351.0,0.023,0.015,0.027,22.95,-41.05,0
1274356.0,-0.003,-0.002,0.003,-23.91,50.46,0
1274361.0,-0.008,-0.007,0.012,-24.42,33.17,0
1274366.0,-0.022,-0.035,0.01,-55.38,66.28,0
1274371.0,0.002,-0.004,0.0,-69.11,-81.44,0
1274376.0,0.002,0.001,-0.019,1.69,-175.18,0
1274381.0,0.004,-0.033,0.01,-72.18,-22.12,0
1274386.0,0.002,0.01,0.01,45.54,-9.23,0
1274391.0,0.006,-0.002,0.0,-16.03,-87.84,0
1274396.0,0.026,-0.023,-0.014,-38.7,-118.95,0
1274401.0,-0.013,0.017,0.039,23.1,18.33,0
1274406.0,0.021,-0.002,0.031,-2.79,-33.49,0
1274411.0,0.009,-0.009,0.022,-21.0,-21.94,0
1274416.0,0.011,-0.019,0.036,-26.17,-17.17,0
1274421.0,0.009,0.003,-0.028,5.66,-162.87,0
1274426.0,0.002,0.008,0.01,37.89,-9.23,0
1274431.0,0.03,-0.021,-0.009,-33.48,-107.11,0
1274436.0,-0.001,0.017,-0.007,68.03,173.44,0
1274441.0,0.016,0.013,-0.057,11.91,-164.41,0
1274446.0,0.018,-0.009,-0.026,-15.78,-144.88,0
1274451.0,-0.02,-0.033,0.043,-34.64,24.72,0
1274456.0,0.026,0.003,0.0,6.6,-89.46,0
1274461.0,0.009,0.001,0.034,0.92,-14.58,0
1274466.0,-0.003,0.015,0.017,40.79,10.64,0
1274471.0,0.011,0.025,0.029,38.28,-21.09,0
1274476.0,0.009,0.013,0.007,47.46,-49.78,0
1274481.0,0.023,0.027,0.01,46.93,-67.01,0
1274486.0,-0.003,-0.009,0.003,-65.35,50.46,0
1274491.0,0.002,-0.004,0.003,-53.93,-31.2,0
1274496.0,0.009,0.003,-0.017,8.97,-152.01,0
1274501.0,0.014,-0.004,0.015,-11.98,-42.89,0
1274506.0,-0.01,0.015,-0.024,29.98,156.36,0
1274511.0,0.014,0.001,-0.033,0.89,-157.82,0
1274516.0,-0.02,0.025,0.027,36.4,36.9,0
1274521.0,-0.006,0.02,0.012,55.74,24.58,0
1274526.0,-0.006,0.013,-0.007,54.58,141.17,0
1274531.0,0.009,0.015,-0.026,28.46,-161.41,0
1274536.0,0.006,0.003,-0.019,8.41,-161.35,0
1274541.0,0.014,0.003,-0.007,10.97,-117.1,0
1274546.0,0.021,0.003,-0.014,6.71,-124.24,0
1274551.0,0.018,0.027,0.055,24.77,-18.36,0
1274556.0,-0.008,0.025,-0.028,39.63,164.35,0
1274561.0,0.018,-0.011,-0.038,-15.11,-154.26,0
1274566.0,0.014,0.003,0.01,10.0,-54.11,0
1274571.0,0.006,0.01,0.017,29.17,-20.58,0
1274576.0,-0.006,0.032,0.027,49.4,11.87,0
1274581.0,0.009,0.008,-0.024,17.03,-159.68,0
1274586.0,0.011,0.032,-0.026,48.14,-156.82,0
1274591.0,-0.039,-0.031,-0.017,-35.75,112.9,0
1274596.0,0.004,0.013,-0.026,25.39,-171.31,0
1274601.0,0.004,0.01,0.003,64.74,-56.56,0
1274606.0,-0.008,0.003,0.012,11.44,33.17,0
1274611.0,-0.01,-0.031,0.005,-69.33,64.14,0
1274616.0,-0.001,0.01,-0.033,16.93,178.63,0
1274621.0,0.014,0.029,-0.048,30.59,-164.11,0
1274626.0,0.018,-0.014,-0.017,-29.21,-131.98,0
1274631.0,-0.022,0.015,0.003,33.55,83.27,0
1274636.0,0.023,-0.011,0.027,-17.94,-41.05,0
1274641.0,0.028,0.001,0.027,0.83,-46.42,0
1274646.0,-0.022,-0.007,0.019,-12.62,49.05,0
1274651.0,0.009,-0.016,-0.012,-47.87,-143.19,0
1274656.0,0.011,0.015,-0.005,51.05,-112.15,0
1274661.0,-0.01,-0.002,0.029,-3.41,19.7,0
1274666.0,-0.001,-0.009,0.024,-20.44,1.89,0
1274671.0,-0.008,0.001,-0.048,0.66,170.49,0
1274676.0,0.014,-0.009,-0.038,-12.58,-160.38,0
1274681.0,0.006,0.01,-0.009,41.86,-145.63,0
1274686.0,-0.02,-0.016,0.007,-37.27,69.59,0
1274691.0,-0.01,-0.007,0.027,-13.07,21.32,0
1274696.0,0.021,0.025,-0.005,49.07,-102.36,0
1274701.0,-0.001,0.02,0.0,87.58,73.24,0
1274706.0,-0.001,0.027,0.01,69.89,4.65,0
1274711.0,-0.032,0.003,-0.012,4.96,110.18,0
1274716.0,-0.008,0.005,0.01,22.91,39.11,0
1274721.0,-0.001,0.017,0.007,66.68,6.14,0
1274726.0,0.004,-0.014,0.007,-58.6,-28.26,0
1274731.0,0.018,-0.009,-0.036,-12.67,-152.77,0
1274736.0,-0.01,0.01,-0.021,23.16,154.04,0
1274741.0,0.009,0.003,-0.007,14.78,-128.34,0
1274746.0,0.006,0.008,0.017,23.09,-20.58,0
1274751.0,0.021,-0.016,-0.009,-35.45,-114.23,0
1274756.0,-0.018,0.001,0.015,1.4,50.24,0
1274761.0,-0.001,0.01,0.003,74.8,16.85,0
1274766.0,0.002,-0.014,-0.002,-79.01,-143.45,0
1274771.0,-0.015,0.015,0.053,15.17,15.99,0
1274776.0,0.004,-0.016,0.043,-20.42,-5.26,0
1274781.0,-0.001,0.022,0.041,28.36,1.12,0
1274786.0,0.018,-0.002,-0.017,-4.25,-131.98,0
1274791.0,-0.022,0.008,-0.024,13.37,136.69,0
1274796.0,0.006,-0.014,-0.019,-34.67,-161.35,0
1274801.0,0.014,-0.002,0.024,-3.79,-29.29,0
1274806.0,0.016,0.01,-0.043,12.5,-159.57,0
1274811.0,-0.032,0.003,-0.028,3.95,131.75,0
1274816.0,-0.006,0.022,-0.033,33.23,170.47,0
1274821.0,0.014,0.005,-0.024,11.08,-150.21,0
1274826.0,-0.008,-0.026,-0.036,-35.19,167.39,0
1274831.0,0.002,0.005,0.005,45.38,-17.61,0
1274836.0,-0.02,0.015,0.024,25.46,39.52,0
1274841.0,-0.018,-0.002,0.022,-3.75,38.86,0
1274846.0,-0.01,0.015,-0.009,46.92,131.98,0
1274851.0,-0.015,-0.019,0.019,-37.07,38.02,0
1274856.0,-0.006,-0.026,-0.036,-35.52,171.1,0
1274861.0,-0.032,0.01,-0.019,15.28,120.65,0
1274866.0,-0.01,0.034,0.015,62.27,35.39,0
1274871.0,-0.008,-0.007,-0.007,-32.06,131.02,0
1274876.0,0.023,0.022,-0.052,21.09,-156.18,0
1274881.0,0.002,-0.019,-0.002,-81.8,-143.45,0
1274886.0,0.016,-0.016,0.005,-44.07,-72.51,0
1274891.0,0.033,0.015,0.029,18.85,-48.48,0
1274896.0,0.021,0.008,-0.036,10.62,-149.82,0
1274901.0,0.011,0.001,0.031,0.96,-19.61,0
1274906.0,0.004,0.015,0.003,72.23,-56.56,0
1274911.0,0.006,-0.009,-0.036,-13.97,-169.85,0
1274916.0,-0.006,-0.002,-0.017,-6.01,161.31,0
1274921.0,-0.003,0.001,0.017,1.85,10.64,0
1274926.0,-0.003,0.017,0.012,53.91,14.65,0
1274931.0,0.004,0.029,-0.024,50.63,-170.44,0
1274936.0,0.006,-0.011,0.003,-58.82,-67.57,0
1274941.0,0.009,0.027,0.0,71.92,-88.43,0
1274946.0,0.009,-0.002,-0.045,-2.28,-169.02,0
1274951.0,-0.013,0.015,0.034,22.46,20.72,0
1274956.0,0.016,-0.028,0.007,-58.0,-65.06,0
1274961.0,-0.001,-0.04,0.0,-88.81,73.24,0
1274966.0,0.006,0.015,-0.012,48.18,-151.44,0
1274971.0,0.018,0.015,-0.017,31.15,-131.98,0
1274976.0,-0.001,-0.031,-0.048,-32.68,179.04,0
1274981.0,-0.008,0.015,0.003,60.61,71.73,0
1274986.0,-0.015,0.015,0.034,21.96,24.19,0
1274991.0,0.009,-0.002,-0.002,-11.48,-103.78,0
1274996.0,0.009,0.022,0.007,62.52,-49.78,0
1275001.0,0.023,0.032,-0.026,42.25,-138.43,0
1275006.0,-0.008,0.001,-0.021,1.41,159.47,0
1275011.0,0.004,-0.009,0.022,-22.15,-10.38,0
1275016.0,0.018,0.022,0.031,31.31,-30.34,0
1275021.0,0.004,-0.004,0.015,-15.61,-15.28,0
1275026.0,0.006,0.003,0.005,19.97,-51.77,0
1275031.0,0.014,0.022,-0.052,22.2,-165.49,0
1275036.0,-0.003,-0.019,-0.019,-44.11,170.42,0
1275041.0,-0.001,0.005,-0.012,24.46,176.11,0
1275046.0,0.021,0.001,-0.024,1.02,-138.8,0
1275051.0,0.002,-0.009,0.048,-10.61,-1.9,0
1275056.0,-0.001,0.008,-0.012,33.36,176.11,0
1275061.0,0.004,0.027,-0.055,26.07,-175.84,0
1275066.0,-0.013,-0.007,-0.026,-12.84,153.93,0
1275071.0,-0.006,0.015,-0.038,21.2,171.65,0
1275076.0,-0.008,0.003,0.012,11.44,33.17,0
1275081.0,-0.003,0.032,-0.007,76.44,155.3,0
1275086.0,0.026,0.017,-0.014,30.69,-118.95,0
1275091.0,0.009,0.003,-0.021,7.3,-157.61,0
1275096.0,-0.006,0.003,-0.043,3.91,172.57,0
1275101.0,0.009,-0.031,-0.005,-72.08,-117.39,0
1275106.0,0.016,0.01,-0.009,28.73,-120.33,0
1275111.0,0.028,-0.009,0.0,-17.89,-89.51,0
1275116.0,-0.01,0.013,-0.021,27.87,154.04,0
1275121.0,0.016,0.008,0.0,25.87,-89.14,0
1275126.0,0.023,0.046,-0.014,59.51,-121.4,0
1275131.0,-0.006,0.02,0.012,55.74,24.58,0
1275136.0,0.023,-0.014,-0.002,-30.71,-95.32,0
1275141.0,-0.001,0.013,0.015,40.58,3.13,0
1275146.0,-0.001,0.017,-0.021,39.08,177.85,0
1275151.0,0.006,-0.009,-0.014,-30.19,-155.68,0
1275156.0,-0.015,0.008,0.007,24.63,63.92,0
1275161.0,0.021,0.02,0.034,26.45,-31.58,0
1275166.0,0.026,0.034,0.003,53.01,-84.11,0
1275171.0,0.009,0.008,0.0,41.4,-88.43,0
1275176.0,-0.006,0.029,-0.019,56.05,163.54,0
1275181.0,0.014,-0.002,-0.019,-4.51,-144.35,0
1275186.0,-0.006,0.001,-0.031,1.02,169.75,0
1275191.0,0.021,0.015,0.015,30.46,-54.86,0
1275196.0,-0.01,-0.007,0.0,-32.55,88.67,0
1275201.0,-0.015,-0.014,0.058,-13.03,14.72,0
1275206.0,-0.006,0.003,0.003,25.55,64.75,0
1275211.0,-0.003,0.027,0.012,64.86,14.65,0
1275216.0,0.002,-0.028,0.007,-74.92,-12.13,0
1275221.0,-0.022,0.003,0.007,7.15,71.62,0
1275226.0,-0.008,-0.007,0.017,-19.43,25.15,0
1275231.0,-0.018,0.01,-0.007,28.23,111.57,0
1275236.0,0.021,-0.004,-0.005,-11.26,-102.36,0
1275241.0,-0.008,0.015,-0.007,54.67,131.02,0
1275246.0,-0.01,-0.011,-0.002,-47.12,101.73,0
1275251.0,-0.003,0.022,0.005,74.92,32.41,0
1275256.0,0.033,-0.028,0.017,-37.38,-62.55,0
1275261.0,0.009,0.005,-0.007,25.54,-128.34,0
1275266.0,-0.003,-0.007,-0.002,-59.83,124.0,0
1275271.0,-0.003,0.005,0.007,33.49,23.27,0
1275276.0,-0.01,-0.002,0.015,-5.85,35.39,0
1275281.0,0.002,-0.021,0.01,-64.65,-9.23,0
1275286.0,-0.008,-0.016,0.007,-56.07,47.07,0
1275291.0,-0.008,0.001,0.007,2.93,47.07,0
1275296.0,-0.018,0.025,0.046,26.57,21.0,0
1275301.0,0.018,0.01,-0.033,14.93,-151.12,0
1275306.0,0.009,0.027,-0.012,61.42,-143.19,0
1275311.0,0.026,0.01,0.012,19.7,-64.44,0
1275316.0,0.009,-0.026,0.017,-53.42,-27.31,0
1275321.0,0.006,-0.031,-0.009,-69.69,-145.63,0
1275326.0,-0.003,0.017,-0.012,54.93,164.78,0
1275331.0,0.033,0.003,-0.005,5.11,-97.91,0
1275336.0,-0.044,-0.014,0.017,-16.35,68.83,0
1275341.0,0.021,0.013,0.015,26.28,-54.86,0
1275346.0,-0.001,0.02,-0.002,83.35,159.66,0
1275351.0,0.009,0.015,0.012,44.78,-35.71,0
1275356.0,-0.01,-0.016,-0.04,-21.2,165.62,0
1275361.0,-0.001,0.01,0.01,45.82,4.65,0
1275366.0,0.023,0.005,0.005,12.72,-77.74,0
1275371.0,-0.015,-0.021,0.015,-44.91,46.07,0
1275376.0,-0.008,0.025,0.003,71.07,71.73,0
1275381.0,0.016,-0.016,0.005,-44.07,-72.51,0
1275386.0,0.026,0.001,0.019,1.0,-52.79,0
1275391.0,0.004,0.003,0.024,6.87,-9.37,0
1275396.0,-0.022,0.01,0.022,17.99,45.72,0
1275401.0,-0.003,0.001,0.015,2.14,12.33,0
1275406.0,-0.006,-0.004,0.007,-24.48,36.96,0
1275411.0,0.023,0.008,-0.012,16.61,-116.88,0
1275416.0,-0.003,0.01,0.003,67.78,50.46,0
1275421.0,0.009,-0.002,-0.002,-11.48,-103.78,0
1275426.0,0.018,0.02,-0.021,35.03,-139.26,0
1275431.0,-0.018,-0.009,0.015,-21.55,50.24,0
1275436.0,-0.003,-0.011,0.005,-62.44,32.41,0
1275441.0,-0.006,0.017,0.007,61.79,36.96,0
1275446.0,0.006,-0.011,0.0,-60.76,-87.84,0
1275451.0,0.016,0.027,-0.012,53.63,-126.31,0
1275456.0,0.028,-0.014,0.007,-25.53,-75.12,0
1275461.0,-0.008,-0.011,0.005,-50.42,57.78,0
1275466.0,-0.032,-0.002,0.027,-2.53,50.22,0
1275471.0,0.009,-0.004,0.003,-24.77,-73.29,0
1275476.0,-0.03,-0.009,0.01,-16.16,71.61,0
1275481.0,-0.018,0.003,0.01,8.35,60.79,0
1275486.0,0.038,-0.004,0.015,-6.0,-68.72,0
1275491.0,-0.001,-0.002,-0.012,-8.87,176.11,0
1275496.0,0.002,-0.019,-0.012,-57.52,-172.25,0
1275501.0,-0.006,0.02,0.019,44.32,16.07,0
1275506.0,-0.001,-0.004,0.005,-39.72,9.02,0
1275511.0,0.004,0.015,0.005,66.72,-38.43,0
1275516.0,0.002,-0.014,-0.007,-62.71,-167.05,0
1275521.0,0.014,-0.028,0.003,-63.87,-79.01,0
1275526.0,-0.013,-0.009,0.019,-21.23,33.36,0
1275531.0,0.011,-0.002,0.041,-2.48,-15.26,0
1275536.0,-0.034,-0.011,-0.014,-17.09,112.37,0
1275541.0,-0.003,-0.007,0.017,-20.95,10.64,0
1275546.0,0.004,-0.019,0.003,-75.58,-56.56,0
1275551.0,0.006,0.015,0.036,22.12,-10.01,0
1275556.0,-0.01,-0.004,-0.002,-21.76,101.73,0
1275561.0,-0.008,0.008,-0.007,36.2,131.02,0
1275566.0,0.004,0.01,0.043,13.11,-5.26,0
1275571.0,0.002,0.013,-0.009,52.91,-170.3,0
1275576.0,0.014,0.022,0.022,40.74,-31.91,0
1275581.0,0.026,0.015,-0.045,16.03,-150.56,0
1275586.0,0.009,0.02,-0.055,19.55,-170.9,0
1275591.0,0.028,0.017,-0.055,15.72,-153.0,0
1275596.0,0.016,0.017,0.015,38.68,-47.54,0
1275601.0,0.002,0.036,0.015,68.06,-6.24,0
1275606.0,0.021,-0.002,-0.031,-2.82,-146.11,0
1275611.0,-0.013,0.008,-0.04,10.34,162.49,0
1275616.0,-0.008,0.008,-0.009,32.22,139.48,0
1275621.0,-0.018,-0.007,-0.019,-14.4,137.13,0
1275626.0,-0.001,-0.014,-0.014,-44.3,176.77,0
1275631.0,-0.008,0.003,0.0,20.3,88.28,0
1275636.0,0.009,0.001,-0.002,3.54,-103.78,0
1275641.0,0.006,-0.021,0.007,-64.99,-40.7,0
1275646.0,0.011,-0.014,-0.005,-48.86,-112.15,0
1275651.0,0.002,0.025,0.019,51.54,-4.7,0
1275656.0,0.028,0.015,-0.024,22.17,-130.32,0
1275661.0,0.006,-0.009,0.022,-21.66,-16.33,0
1275666.0,-0.015,0.008,-0.007,24.9,114.6,0
1275671.0,-0.006,0.029,-0.064,24.37,175.04,0
1275676.0,0.011,0.029,0.005,67.3,-65.77,0
1275681.0,0.018,-0.021,0.027,-33.02,-34.63,0
1275686.0,-0.003,0.005,0.029,10.4,6.29,0
1275691.0,0.004,0.001,0.022,1.44,-10.38,0
1275696.0,-0.001,-0.004,0.0,-78.85,73.24,0
1275701.0,-0.008,-0.004,0.01,-18.49,39.11,0
1275706.0,-0.003,0.017,-0.009,60.33,161.12,0
1275711.0,-0.013,0.015,-0.009,43.33,126.17,0
1275716.0,0.018,-0.028,0.027,-41.1,-34.63,0
1275721.0,-0.001,-0.007,-0.007,-43.47,173.44,0
1275726.0,0.002,0.025,0.019,51.54,-4.7,0
1275731.0,-0.006,0.02,-0.005,69.93,129.15,0
1275736.0,-0.006,0.034,0.019,59.36,16.07,0
1275741.0,0.035,-0.007,-0.009,-10.33,-104.89,0
1275746.0,0.018,0.036,-0.014,57.58,-127.58,0
1275751.0,0.023,0.017,-0.012,33.72,-116.88,0
1275756.0,0.009,0.003,-0.04,4.08,-167.76,0
1275761.0,0.002,-0.028,0.036,-37.9,-2.53,0
1275766.0,0.045,-0.014,0.015,-16.36,-71.9,0
1275771.0,-0.018,-0.009,0.029,-14.91,31.22,0
1275776.0,-0.027,0.015,-0.007,28.05,104.35,0
1275781.0,-0.034,0.051,-0.014,53.87,112.37,0
1275786.0,-0.01,0.027,0.007,64.62,54.42,0
1275791.0,0.002,0.003,0.005,29.23,-17.61,0
1275796.0,-0.01,-0.019,-0.007,-56.13,123.79,0
1275801.0,-0.01,-0.016,-0.009,-49.25,131.98,0
1275806.0,-0.03,-0.002,0.017,-3.08,60.07,0
1275811.0,0.021,0.017,-0.043,19.99,-154.16,0
1275816.0,-0.003,0.029,0.017,59.44,10.64,0
1275821.0,-0.008,-0.023,-0.002,-70.53,105.1,0
1275826.0,0.014,0.032,-0.028,45.12,-154.54,0
1275831.0,0.016,0.003,0.015,7.77,-47.54,0
1275836.0,-0.003,0.022,0.01,64.97,18.01,0
1275841.0,0.004,0.02,-0.048,22.41,-175.21,0
1275846.0,0.014,0.017,0.005,50.12,-69.66,0
1275851.0,0.018,0.01,-0.007,27.32,-110.72,0
1275856.0,-0.015,-0.009,0.01,-26.53,57.08,0
1275861.0,0.016,-0.031,-0.005,-61.5,-105.9,0
1275866.0,-0.008,0.001,-0.017,1.74,154.21,0
1275871.0,0.004,-0.002,0.022,-4.74,-10.38,0
1275876.0,-0.003,0.001,0.0,9.9,85.69,0
1275881.0,-0.018,0.034,0.005,61.81,74.02,0
1275886.0,0.004,-0.011,-0.007,-54.95,-150.11,0
1275891.0,0.006,0.008,0.01,33.47,-33.04,0
1275896.0,-0.01,0.02,-0.009,54.7,131.98,0
1275901.0,-0.015,0.01,-0.031,16.41,153.85,0
1275906.0,-0.013,-0.019,0.003,-54.96,78.34,0
1275911.0,-0.01,-0.009,0.022,-20.49,25.46,0
1275916.0,0.002,-0.016,-0.026,-31.79,-176.5,0
1275921.0,-0.003,-0.016,-0.002,-76.63,124.0,0
1275926.0,-0.013,0.01,-0.005,36.79,109.6,0
1275931.0,-0.001,0.017,0.0,87.24,73.24,0
1275936.0,-0.018,-0.002,-0.033,-2.79,152.18,0
1275941.0,0.016,0.01,-0.036,14.54,-155.89,0
1275946.0,0.028,-0.004,0.015,-7.64,-62.4,0
1275951.0,0.021,0.025,0.029,34.51,-35.61,0
1275956.0,-0.003,0.003,0.005,26.37,32.41,0
1275961.0,0.009,-0.007,0.017,-19.1,-27.31,0
1275966.0,0.011,-0.021,0.005,-59.73,-65.77,0
1275971.0,-0.015,-0.019,-0.007,-48.11,114.6,0
1275976.0,-0.008,-0.014,0.015,-39.68,28.65,0
1275981.0,-0.003,-0.002,0.003,-23.91,50.46,0
1275986.0,-0.01,0.008,-0.012,26.3,138.51,0
1275991.0,-0.001,0.013,0.0,86.19,73.24,0
1275996.0,-0.008,0.01,0.003,50.33,71.73,0
1276001.0,0.026,0.003,0.003,6.56,-84.11,0
1276006.0,-0.006,-0.014,0.017,-37.65,18.19,0
1276011.0,0.016,0.022,0.0,54.17,-89.14,0
1276016.0,-0.022,0.022,0.003,44.49,83.27,0
1276021.0,-0.015,0.01,-0.045,11.99,161.47,0
1276026.0,-0.003,0.02,-0.007,68.81,155.3,0
1276031.0,0.014,-0.007,0.005,-24.6,-69.66,0
1276036.0,0.002,0.029,0.003,84.0,-31.2,0
1276041.0,0.014,-0.019,0.003,-53.38,-79.01,0
1276046.0,-0.027,-0.028,-0.026,-36.81,133.88,0
1276051.0,0.004,0.02,0.036,28.46,-6.3,0
1276056.0,0.014,0.034,0.019,55.22,-34.97,0
1276061.0,-0.013,0.017,-0.005,51.95,109.6,0
1276066.0,0.028,-0.011,0.034,-14.6,-39.6,0
1276071.0,0.004,-0.002,0.01,-9.83,-22.12,0
1276076.0,0.004,-0.007,-0.076,-4.95,-177.01,0
1276081.0,-0.02,-0.004,-0.009,-10.87,115.08,0
1276086.0,0.026,0.025,-0.028,32.63,-138.13,0
1276091.0,0.028,-0.004,0.067,-3.32,-22.55,0
1276096.0,0.016,-0.004,0.043,-5.23,-20.22,0
1276101.0,0.002,-0.007,-0.009,-34.97,-170.3,0
1276106.0,0.004,0.008,0.0,62.69,-86.55,0
1276111.0,0.006,-0.014,0.005,-59.52,-51.77,0
1276116.0,-0.003,0.027,0.046,30.4,3.99,0
1276121.0,0.028,0.02,0.007,34.3,-75.12,0
1276126.0,-0.022,0.041,0.007,60.29,71.62,0
1276131.0,-0.032,-0.023,-0.005,-35.95,98.11,0
1276136.0,0.018,0.022,-0.04,26.45,-155.6,0
1276141.0,-0.006,-0.009,-0.038,-13.19,171.65,0
1276146.0,-0.018,0.001,0.019,1.22,42.15,0
1276151.0,-0.001,0.005,-0.019,15.77,177.58,0
1276156.0,-0.049,-0.023,-0.021,-23.75,113.64,0
1276161.0,-0.025,0.02,-0.002,38.44,94.97,0
1276166.0,-0.003,-0.035,-0.043,-39.44,175.74,0
1276171.0,-0.018,-0.011,-0.012,-28.39,123.75,0
1276176.0,-0.01,0.003,0.0,15.88,88.67,0
1276181.0,-0.02,0.001,-0.019,1.16,133.47,0
1276186.0,-0.006,-0.002,-0.06,-1.76,174.65,0
1276191.0,0.002,0.017,-0.045,20.93,-177.98,0
1276196.0,0.014,0.017,0.0,51.92,-88.99,0
1276201.0,-0.015,-0.019,-0.005,-49.59,106.7,0
1276206.0,0.009,0.015,0.034,23.16,-14.58,0
1276211.0,0.033,0.015,0.017,22.03,-62.55,0
1276216.0,0.004,-0.002,0.005,-15.96,-38.43,0
1276221.0,0.04,0.013,-0.017,16.18,-112.49,0
1276226.0,0.018,0.034,-0.005,60.97,-103.92,0
1276231.0,0.011,0.02,0.012,49.98,-42.46,0
1276236.0,0.026,-0.023,0.039,-26.83,-33.52,0
1276241.0,0.028,0.017,0.041,19.26,-34.3,0
1276246.0,0.011,0.015,-0.005,51.05,-112.15,0
1276251.0,0.004,-0.038,-0.031,-50.48,-172.64,0
1276256.0,0.009,-0.004,-0.038,-6.18,-167.01,0
1276261.0,-0.008,0.022,0.051,23.38,8.98,0
1276266.0,0.016,0.003,0.007,9.52,-65.06,0
1276271.0,-0.003,-0.035,0.01,-73.72,18.01,0
1276276.0,-0.02,0.001,-0.009,1.45,115.08,0
1276281.0,-0.015,0.01,-0.012,27.86,127.73,0
1276286.0,0.016,-0.009,0.01,-25.7,-58.41,0
1276291.0,-0.01,0.01,0.022,22.78,25.46,0
1276296.0,-0.003,-0.011,0.039,-16.44,4.73,0
1276301.0,0.026,-0.009,-0.012,-17.79,-114.67,0
1276306.0,-0.006,0.01,-0.012,37.96,154.53,0
1276311.0,0.018,0.008,-0.009,20.6,-116.96,0
1276316.0,-0.001,0.015,0.012,50.65,3.74,0
1276321.0,-0.022,0.015,0.01,31.44,66.28,0
1276326.0,-0.001,-0.002,0.005,-19.82,9.02,0
1276331.0,-0.008,0.025,-0.021,47.12,159.47,0
1276336.0,0.035,-0.011,0.017,-16.31,-64.17,0
1276341.0,-0.001,0.003,0.005,30.11,9.02,0
1276346.0,-0.006,-0.009,-0.017,-27.35,161.31,0
1276351.0,0.009,-0.019,-0.019,-41.73,-155.1,0
1276356.0,-0.03,-0.019,-0.012,-30.34,111.67,0
1276361.0,-0.001,0.001,-0.014,2.26,176.77,0
1276366.0,-0.01,0.017,-0.038,23.7,164.75,0
1276371.0,0.011,-0.011,-0.005,-43.41,-112.15,0
1276376.0,-0.003,-0.007,0.017,-20.95,10.64,0
1276381.0,-0.001,-0.009,0.019,-24.92,2.36,0
1276386.0,0.038,-0.004,-0.026,-5.29,-124.83,0
1276391.0,0.006,-0.021,-0.048,-23.59,-172.37,0
1276396.0,-0.015,0.008,0.003,26.7,80.14,0
1276401.0,0.021,0.02,-0.017,36.62,-128.52,0
1276406.0,0.004,-0.011,0.019,-29.96,-11.63,0
1276411.0,-0.003,0.034,-0.005,80.74,144.94,0
1276416.0,0.018,-0.016,-0.033,-23.09,-151.12,0
1276421.0,-0.013,-0.009,0.0,-35.23,88.92,0
1276426.0,-0.022,0.008,-0.019,14.81,130.24,0
1276431.0,-0.01,0.013,-0.007,45.11,123.79,0
1276436.0,-0.006,0.003,0.0,27.84,87.54,0
1276441.0,0.018,0.036,0.005,62.44,-74.68,0
1276446.0,-0.006,0.001,0.012,2.38,24.58,0
1276451.0,-0.03,0.034,0.012,46.84,67.53,0
1276456.0,0.04,-0.014,0.017,-17.66,-66.92,0
1276461.0,0.028,-0.007,-0.014,-11.95,-116.82,0
1276466.0,-0.003,0.022,0.0,81.76,85.69,0
1276471.0,0.03,-0.004,0.024,-6.22,-51.43,0
1276476.0,0.009,-0.028,-0.021,-50.72,-157.61,0
1276481.0,-0.003,0.005,-0.002,54.24,124.0,0
1276486.0,0.018,-0.002,-0.007,-5.34,-110.72,0
1276491.0,0.009,0.003,0.017,8.77,-27.31,0
1276496.0,0.021,0.001,0.027,0.95,-37.98,0
1276501.0,0.004,-0.011,0.003,-67.27,-56.56,0
1276506.0,0.009,-0.014,0.019,-32.97,-24.35,0
1276511.0,-0.02,-0.011,0.01,-27.17,63.8,0
1276516.0,0.006,-0.009,-0.055,-9.28,-173.36,0
1276521.0,-0.003,-0.002,-0.009,-10.54,161.12,0
1276526.0,-0.018,-0.004,0.019,-9.18,42.15,0
1276531.0,-0.018,-0.038,0.031,-46.4,29.24,0
1276536.0,0.002,0.032,-0.007,77.33,-167.05,0
1276541.0,0.002,0.005,0.015,20.0,-6.24,0
1276546.0,-0.013,0.005,0.015,15.41,41.16,0
1276551.0,0.016,0.017,-0.019,34.98,-139.84,0
1276556.0,-0.001,-0.019,0.01,-62.09,4.65,0
1276561.0,0.004,0.036,0.039,43.26,-5.91,0
1276566.0,0.006,0.017,0.007,60.52,-40.7,0
1276571.0,0.011,0.005,-0.028,9.91,-158.59,0
1276576.0,0.04,0.027,0.055,21.52,-35.81,0
1276581.0,-0.001,0.039,-0.019,64.03,177.58,0
1276586.0,-0.013,0.034,-0.007,66.9,118.53,0
1276591.0,0.009,0.036,-0.019,60.24,-155.1,0
1276596.0,0.028,0.01,0.029,14.14,-43.95,0
1276601.0,0.006,-0.021,0.019,-45.79,-18.22,0
1276606.0,0.03,-0.021,-0.012,-32.84,-111.15,0
1276611.0,-0.001,0.017,0.019,41.74,2.36,0
1276616.0,-0.006,-0.002,-0.014,-6.89,158.42,0
1276621.0,0.006,-0.021,-0.036,-30.08,-169.85,0
1276626.0,0.021,-0.014,-0.005,-33.02,-102.36,0
1276631.0,-0.001,0.01,0.031,17.9,1.46,0
1276636.0,0.004,-0.002,-0.005,-16.88,-138.74,0
1276641.0,-0.032,-0.023,0.003,-36.13,85.28,0
1276646.0,-0.001,-0.016,-0.005,-74.09,170.05,0
1276651.0,-0.008,0.005,0.015,17.81,28.65,0
1276656.0,-0.003,-0.002,-0.024,-4.39,172.33,0
1276661.0,-0.013,0.001,0.0,2.5,88.92,0
1276666.0,0.011,0.008,0.007,29.99,-56.4,0
1276671.0,0.004,-0.007,-0.031,-12.01,-172.64,0
1276676.0,0.014,0.015,-0.055,14.8,-166.1,0
1276681.0,0.004,0.001,0.027,1.19,-8.54,0
1276686.0,0.004,0.017,0.029,30.63,-7.84,0
1276691.0,0.004,0.015,0.019,37.01,-11.63,0
1276696.0,0.023,0.013,-0.028,18.85,-140.91,0
1276701.0,-0.027,0.025,0.01,40.33,70.11,0
1276706.0,0.014,0.005,0.024,10.91,-29.29,0
1276711.0,0.016,-0.002,0.022,-3.89,-36.22,0
1276716.0,0.018,0.003,0.012,7.63,-56.36,0
1276721.0,0.018,0.005,0.031,8.37,-30.34,0
1276726.0,0.016,0.02,-0.057,18.36,-164.41,0
1276731.0,0.009,-0.011,0.003,-51.23,-73.29,0
1276736.0,0.026,-0.002,-0.017,-3.45,-122.9,0
1276741.0,0.004,-0.009,-0.038,-13.26,-174.02,0
1276746.0,-0.003,-0.011,-0.036,-17.67,174.89,0
1276751.0,0.018,-0.04,-0.005,-64.78,-103.92,0
1276756.0,-0.001,-0.009,0.015,-31.66,3.13,0
1276761.0,-0.027,-0.002,-0.012,-3.55,113.38,0
1276766.0,0.009,-0.004,0.007,-20.2,-49.78,0
1276771.0,0.014,0.013,0.019,27.9,-34.97,0
1276776.0,0.011,0.005,0.017,14.73,-33.31,0
1276781.0,0.006,0.017,-0.014,48.17,-155.68,0
1276786.0,0.004,-0.007,0.012,-27.28,-18.1,0
1276791.0,0.006,0.02,-0.021,41.55,-163.32,0
1276796.0,-0.037,-0.004,0.017,-5.97,65.15,0
1276801.0,0.009,-0.019,0.015,-47.5,-31.01,0
1276806.0,-0.003,0.001,0.005,5.36,32.41,0
1276811.0,0.004,-0.011,-0.009,-48.34,-156.86,0
1276816.0,0.021,-0.009,-0.002,-23.38,-95.92,0
1276821.0,0.014,-0.028,-0.021,-48.12,-147.51,0
1276826.0,0.016,-0.009,-0.007,-27.39,-113.5,0
1276831.0,0.014,0.001,0.041,0.74,-18.33,0
1276836.0,0.002,0.017,0.015,49.69,-6.24,0
1276841.0,0.021,-0.026,-0.017,-44.18,-128.52,0
1276846.0,0.026,-0.011,-0.002,-24.0,-94.82,0
1276851.0,0.014,0.017,0.046,19.95,-16.52,0
1276856.0,0.016,-0.007,0.017,-15.86,-43.19,0
1276861.0,-0.02,-0.014,-0.024,-24.02,139.91,0
1276866.0,-0.01,0.003,-0.04,4.04,165.62,0
1276871.0,-0.01,-0.026,-0.024,-44.89,156.36,0
1276876.0,0.011,-0.035,0.01,-67.18,-48.7,0
1276881.0,0.03,0.013,0.015,20.42,-64.28,0
1276886.0,0.026,0.015,0.005,29.83,-78.86,0
1276891.0,0.018,0.02,-0.024,33.33,-142.24,0
1276896.0,-0.001,0.013,-0.024,27.85,178.07,0
1276901.0,-0.018,-0.009,-0.067,-7.44,165.27,0
1276906.0,-0.001,0.013,-0.002,79.61,159.66,0
1276911.0,-0.008,0.039,0.005,76.36,57.78,0
1276916.0,-0.013,0.013,0.027,23.02,25.66,0
1276921.0,-0.008,-0.016,-0.017,-41.45,154.21,0
1276926.0,0.042,0.01,0.027,11.47,-57.86,0
1276931.0,0.066,-0.043,0.058,-25.84,-48.94,0
1276936.0,-0.013,-0.11,0.082,-52.98,8.89,0
1276941.0,0.038,-0.009,0.043,-8.94,-40.88,0
1276946.0,0.004,-0.031,-0.055,-29.08,-175.84,0
1276951.0,-0.015,0.041,-0.06,33.85,165.73,0
1276956.0,0.004,-0.05,-0.084,-30.73,-177.27,0
1276961.0,0.004,-0.016,-0.019,-39.97,-168.09,0
1276966.0,0.04,0.022,0.043,20.57,-42.64,0
1276971.0,0.002,-0.031,-0.002,-84.99,-143.45,0
1276976.0,-0.006,-0.021,0.012,-57.39,24.58,0
1276981.0,-0.013,0.01,0.067,8.42,10.75,0
1276986.0,0.006,0.013,-0.009,47.93,-145.63,0
1276991.0,-0.008,0.017,-0.091,10.76,174.97,0
1276996.0,-0.013,-0.002,-0.021,-4.23,149.07,0
1277001.0,-0.008,0.005,-0.007,26.82,131.02,0
1277006.0,-0.001,0.032,-0.002,85.85,159.66,0
1277011.0,-0.006,0.025,-0.017,54.56,161.31,0
1277016.0,0.009,0.008,0.022,18.24,-21.94,0
1277021.0,-0.02,0.029,0.017,48.17,49.57,0
1277026.0,0.009,0.017,0.031,28.0,-15.64,0
1277031.0,-0.001,0.029,-0.009,72.26,175.11,0
1277036.0,0.011,0.017,0.012,46.3,-42.46,0
1277041.0,0.014,-0.026,0.007,-59.04,-61.31,0
1277046.0,-0.01,-0.014,0.003,-52.21,75.75,0
1277051.0,-0.001,0.041,0.003,86.18,16.85,0
1277056.0,-0.003,-0.019,-0.031,-30.92,174.1,0
1277061.0,-0.008,-0.021,0.007,-62.56,47.07,0
1277066.0,0.006,0.001,-0.017,1.81,-158.87,0
1277071.0,-0.01,-0.007,-0.002,-32.01,101.73,0
1277076.0,0.006,0.013,0.0,62.98,-87.84,0
1277081.0,0.006,0.017,0.005,64.86,-51.77,0
1277086.0,-0.022,0.003,0.007,7.15,71.62,0
1277091.0,0.018,-0.009,0.019,-18.66,-43.42,0
1277096.0,0.002,-0.002,-0.048,-2.21,-178.08,0
1277101.0,-0.006,-0.019,0.029,-32.22,10.91,0
1277106.0,0.018,0.008,0.036,10.81,-26.92,0
1277111.0,0.002,0.025,-0.007,73.79,-167.05,0
1277116.0,0.006,-0.007,-0.093,-4.06,-176.08,0
1277121.0,-0.001,-0.002,-0.026,-4.02,178.25,0
1277126.0,-0.008,-0.002,0.017,-5.58,25.15,0
1277131.0,-0.006,-0.019,-0.031,-30.65,169.75,0
1277136.0,-0.018,0.027,0.031,36.8,29.24,0
1277141.0,0.009,0.01,-0.009,38.34,-136.76,0
1277146.0,-0.01,0.032,-0.045,34.31,167.09,0
1277151.0,0.002,-0.007,-0.021,-17.22,-175.72,0
1277156.0,0.004,0.013,-0.017,36.4,-166.42,0
1277161.0,-0.015,-0.035,0.003,-66.48,80.14,0
1277166.0,-0.001,0.029,-0.014,64.22,176.77,0
1277171.0,-0.01,-0.011,-0.036,-17.08,163.78,0
1277176.0,0.026,-0.011,0.017,-20.4,-56.35,0
1277181.0,0.004,-0.028,-0.026,-46.86,-171.31,0
1277186.0,0.016,0.008,0.017,18.36,-43.19,0
1277191.0,0.002,0.001,0.003,10.28,-31.2,0
1277196.0,0.018,0.015,-0.002,38.92,-96.69,0
1277201.0,0.014,0.008,-0.014,21.57,-136.15,0
1277206.0,-0.073,-0.026,-0.057,-15.58,128.23,0
1277211.0,0.059,0.046,0.024,35.81,-67.73,0
1277216.0,-0.039,-0.019,-0.009,-24.82,103.43,0
1277221.0,-0.003,-0.002,0.012,-8.27,14.65,0
1277226.0,0.021,0.02,-0.002,43.38,-95.92,0
1277231.0,0.035,0.017,0.003,26.19,-85.71,0
1277236.0,-0.034,0.025,-0.002,35.47,93.59,0
1277241.0,0.021,0.005,0.034,7.68,-31.58,0
1277246.0,0.009,0.034,0.031,46.3,-15.64,0
1277251.0,-0.001,0.003,-0.031,5.46,178.52,0
1277256.0,0.014,0.039,0.036,45.19,-20.57,0
1277261.0,-0.006,-0.016,0.003,-69.13,64.75,0
1277266.0,-0.02,-0.016,0.024,-27.33,39.52,0
1277271.0,0.014,-0.014,-0.045,-16.29,-163.31,0
1277276.0,0.004,-0.04,-0.028,-54.37,-172.03,0
1277281.0,0.03,-0.019,0.019,-27.32,-57.4,0
1277286.0,-0.022,-0.016,0.027,-25.01,40.06,0
1277291.0,0.028,0.008,0.022,12.33,-52.04,0
1277296.0,0.018,0.025,-0.033,32.81,-151.12,0
1277301.0,-0.027,-0.011,-0.002,-22.75,94.54,0
1277306.0,-0.01,-0.007,-0.024,-14.36,156.36,0
1277311.0,0.002,-0.023,-0.012,-63.15,-172.25,0
1277316.0,-0.015,0.003,0.031,4.84,25.8,0
1277321.0,0.014,0.034,0.007,65.59,-61.31,0
1277326.0,-0.018,0.02,0.029,30.2,31.22,0
1277331.0,0.026,0.01,-0.019,17.69,-126.52,0
1277336.0,0.004,0.022,-0.012,60.73,-161.21,0
1277341.0,-0.003,0.036,0.019,61.68,9.35,0
1277346.0,0.023,-0.031,-0.005,-52.34,-101.12,0
1277351.0,-0.032,0.017,-0.028,22.04,131.75,0
1277356.0,0.03,0.01,0.015,16.76,-64.28,0
1277361.0,0.006,-0.011,-0.009,-45.26,-145.63,0
1277366.0,0.018,-0.002,0.022,-3.69,-40.11,0
1277371.0,0.009,0.013,0.0,54.97,-88.43,0
1277376.0,0.004,-0.016,-0.033,-25.8,-173.16,0
1277381.0,-0.018,-0.038,0.01,-61.95,60.79,0
1277386.0,0.014,0.005,0.0,21.51,-88.99,0
1277391.0,-0.006,0.027,0.0,78.26,87.54,0
1277396.0,-0.013,0.015,-0.005,47.75,109.6,0
1277401.0,-0.003,0.001,-0.005,5.74,144.94,0
1277406.0,0.014,-0.011,0.007,-36.43,-61.31,0
1277411.0,0.026,0.005,-0.017,9.97,-122.9,0
1277416.0,0.009,0.005,-0.028,10.17,-162.87,0
1277421.0,-0.041,-0.019,-0.045,-16.85,137.48,0
1277426.0,0.002,0.015,0.005,70.53,-17.61,0
1277431.0,0.006,-0.031,0.027,-48.2,-13.51,0
1277436.0,-0.02,-0.016,-0.019,-30.51,133.47,0
1277441.0,0.009,-0.007,-0.031,-11.66,-164.13,0
1277446.0,0.014,0.008,0.003,29.25,-79.01,0
1277451.0,-0.032,0.01,-0.021,14.79,123.72,0
1277456.0,0.004,0.036,0.017,64.42,-13.21,0
1277461.0,0.006,0.01,0.017,29.17,-20.58,0
1277466.0,0.016,-0.009,-0.007,-27.39,-113.5,0
1277471.0,0.004,0.005,-0.05,6.08,-175.44,0
1277476.0,-0.001,0.032,-0.002,85.85,159.66,0
1277481.0,-0.013,0.017,0.0,53.59,88.92,0
1277486.0,0.006,0.017,0.017,43.64,-20.58,0
1277491.0,0.018,0.003,0.015,7.17,-51.49,0
1277496.0,0.006,0.001,0.005,3.93,-51.77,0
1277501.0,0.011,-0.023,0.003,-63.85,-76.73,0
1277506.0,-0.051,0.008,-0.028,7.54,119.15,0
1277511.0,0.021,-0.028,-0.043,-30.61,-154.16,0
1277516.0,0.006,-0.009,0.029,-16.91,-12.43,0
1277521.0,-0.022,-0.026,0.024,-38.06,42.74,0
1277526.0,-0.006,-0.011,0.046,-13.91,6.96,0
1277531.0,0.006,-0.002,0.007,-10.62,-40.7,0
1277536.0,0.002,-0.007,-0.014,-24.99,-173.55,0
1277541.0,0.021,0.008,0.015,16.97,-54.86,0
1277546.0,-0.022,-0.002,0.003,-4.66,83.27,0
1277551.0,0.004,0.003,-0.028,5.86,-172.03,0
1277556.0,-0.013,0.013,0.007,40.31,59.83,0
1277561.0,-0.006,0.017,0.027,32.52,11.87,0
1277566.0,-0.015,-0.021,-0.012,-47.59,127.73,0
1277571.0,-0.015,0.029,0.01,58.34,57.08,0
1277576.0,0.004,0.008,-0.024,17.85,-170.44,0
1277581.0,0.011,-0.009,0.017,-23.91,-33.31,0
1277586.0,0.014,-0.026,0.031,-37.03,-23.39,0
1277591.0,0.009,0.036,0.003,75.89,-73.29,0
1277596.0,0.006,0.003,0.036,4.6,-10.01,0
1277601.0,0.002,-0.002,-0.002,-34.4,-143.45,0
1277606.0,-0.01,-0.004,-0.017,-12.23,147.87,0
1277611.0,0.021,0.003,0.031,4.49,-33.49,0
1277616.0,0.016,-0.004,0.01,-12.72,-58.41,0
1277621.0,0.03,0.01,0.039,11.68,-38.19,0
1277626.0,0.021,0.017,-0.019,31.67,-132.35,0
1277631.0,-0.013,-0.019,0.036,-25.87,19.45,0
1277636.0,0.04,0.034,0.019,37.53,-64.08,0
1277641.0,0.021,-0.011,0.007,-27.38,-70.31,0
1277646.0,0.035,-0.004,-0.007,-6.74,-101.18,0
1277651.0,-0.018,0.008,0.015,18.72,50.24,0
1277656.0,0.016,0.013,0.027,22.01,-30.99,0
1277661.0,0.006,0.001,-0.007,3.39,-137.39,0
1277666.0,0.021,0.003,-0.002,8.06,-95.92,0
1277671.0,-0.013,0.01,-0.012,30.31,132.57,0
1277676.0,-0.008,0.001,0.01,2.53,39.11,0
1277681.0,0.016,0.013,0.0,38.13,-89.14,0
1277686.0,0.002,-0.016,-0.019,-40.48,-175.18,0
1277691.0,-0.008,-0.002,-0.052,-1.98,171.35,0
1277696.0,0.011,0.001,0.027,1.11,-22.8,0
1277701.0,0.014,0.01,0.062,9.01,-12.25,0
1277706.0,0.018,-0.002,-0.005,-5.54,-103.92,0
1277711.0,-0.02,-0.028,0.015,-48.73,53.79,0
1277716.0,0.011,0.003,-0.033,4.81,-161.44,0
1277721.0,0.006,0.001,-0.038,0.83,-170.48,0
1277726.0,-0.003,-0.014,0.022,-32.09,8.34,0
1277731.0,0.033,-0.002,0.007,-3.13,-77.22,0
1277736.0,-0.003,0.099,0.07,54.76,2.62,0
1277741.0,0.078,-0.11,0.065,-47.16,-50.32,0
1277746.0,0.002,-0.062,0.062,-44.62,-1.46,0
1277751.0,0.047,0.044,0.096,22.21,-26.12,0
1277756.0,0.04,0.08,0.01,62.69,-76.18,0
1277761.0,-0.07,0.034,-0.064,19.68,132.52,0
1277766.0,-0.065,-0.043,-0.151,-14.52,156.51,0
1277771.0,-0.085,0.025,-0.165,7.53,152.85,0
1277776.0,0.002,0.034,-0.06,29.74,-178.47,0
1277781.0,-0.013,0.032,-0.007,65.36,118.53,0
1277786.0,0.002,0.005,0.062,4.89,-1.46,0
1277791.0,-0.001,0.022,0.039,29.83,1.19,0
1277796.0,0.021,-0.011,-0.021,-20.99,-135.76,0
1277801.0,0.018,0.022,0.005,49.27,-74.68,0
1277806.0,0.004,0.027,-0.012,65.26,-161.21,0
1277811.0,-0.013,-0.019,0.005,-53.57,68.5,0
1277816.0,-0.01,0.005,0.015,16.62,35.39,0
1277821.0,-0.01,-0.004,-0.062,-3.85,170.5,0
1277826.0,-0.003,0.001,0.003,7.69,50.46,0
1277831.0,0.014,0.003,0.003,12.06,-79.01,0
1277836.0,-0.001,0.02,-0.005,76.82,170.05,0
1277841.0,0.002,-0.007,-0.024,-15.58,-176.15,0
1277846.0,-0.03,0.001,0.01,1.03,71.61,0
1277851.0,0.016,0.022,0.015,45.62,-47.54,0
1277856.0,-0.022,-0.019,-0.04,-21.91,151.09,0
1277861.0,-0.013,0.027,0.003,64.14,78.34,0
1277866.0,-0.008,0.01,-0.014,31.99,150.53,0
1277871.0,-0.022,-0.009,0.019,-16.95,49.05,0
1277876.0,-0.008,0.008,0.017,22.4,25.15,0
1277881.0,0.011,0.001,0.007,2.38,-56.4,0
1277886.0,-0.025,0.013,0.003,26.73,83.92,0
1277891.0,0.04,0.029,0.0,36.28,-89.65,0
1277896.0,-0.008,0.013,0.034,19.86,13.3,0
1277901.0,0.002,0.001,0.01,3.21,-9.23,0
1277906.0,-0.006,0.013,0.027,24.77,11.87,0
1277911.0,0.006,0.036,-0.017,64.1,-158.87,0
1277916.0,-0.01,0.005,-0.017,15.33,147.87,0
1277921.0,-0.003,0.029,0.007,74.58,23.27,0
1277926.0,0.018,0.001,0.024,1.05,-37.2,0
1277931.0,0.004,0.013,0.022,29.49,-10.38,0
1277936.0,-0.01,0.015,0.007,49.48,54.42,0
1277941.0,-0.015,-0.021,-0.012,-47.59,127.73,0
1277946.0,-0.013,0.01,-0.005,36.79,109.6,0
1277951.0,0.004,-0.004,0.012,-18.22,-18.1,0
1277956.0,0.006,-0.028,0.031,-41.35,-11.51,0
1277961.0,0.006,-0.002,0.017,-5.77,-20.58,0
1277966.0,0.016,-0.023,0.0,-55.68,-89.14,0
1277971.0,-0.01,0.027,-0.012,59.79,138.51,0
1277976.0,0.011,-0.019,0.01,-51.35,-48.7,0
1277981.0,-0.006,0.013,0.034,20.11,9.4,0
1277986.0,0.014,0.003,0.0,12.28,-88.99,0
1277991.0,-0.018,-0.002,0.007,-5.5,67.08,0
1277996.0,0.014,-0.023,-0.026,-38.49,-152.53,0
1278001.0,-0.001,0.01,0.012,39.63,3.74,0
1278006.0,-0.008,-0.014,-0.007,-52.54,131.02,0
1278011.0,-0.008,0.02,0.022,40.35,20.12,0
1278016.0,0.018,0.003,0.017,6.73,-47.2,0
1278021.0,0.009,0.003,0.015,9.83,-31.01,0
1278026.0,0.011,0.001,-0.012,1.97,-136.39,0
1278031.0,0.026,0.01,0.005,21.28,-78.86,0
1278036.0,-0.008,-0.009,-0.014,-29.07,150.53,0
1278041.0,0.021,0.008,-0.007,19.48,-108.5,0
1278046.0,0.023,0.013,0.003,28.28,-83.5,0
1278051.0,0.009,-0.004,-0.014,-14.27,-148.14,0
1278056.0,-0.044,-0.002,0.003,-2.39,86.56,0
1278061.0,-0.006,0.025,-0.002,76.27,111.08,0
1278066.0,0.002,-0.009,0.007,-49.9,-12.13,0
1278071.0,0.016,0.02,0.022,36.12,-36.22,0
1278076.0,-0.001,-0.023,0.0,-87.96,73.24,0
1278081.0,0.011,-0.011,-0.019,-27.45,-149.43,0
1278086.0,0.014,-0.014,-0.009,-39.97,-124.53,0
1278091.0,0.014,-0.002,-0.014,-5.35,-136.15,0
1278096.0,-0.008,0.032,-0.007,71.54,131.02,0
1278101.0,0.002,0.029,0.027,47.73,-3.44,0
1278106.0,0.014,0.003,0.029,5.27,-25.09,0
1278111.0,0.009,0.013,0.007,47.46,-49.78,0
1278116.0,0.004,0.027,0.012,64.47,-18.1,0
1278121.0,-0.01,0.02,0.043,23.86,13.46,0
1278126.0,0.004,-0.002,-0.017,-6.16,-166.42,0
1278131.0,-0.001,-0.016,-0.002,-81.93,159.66,0
1278136.0,0.009,0.005,0.024,11.74,-19.95,0
1278141.0,-0.018,-0.019,-0.019,-35.77,137.13,0
1278146.0,0.023,0.02,0.036,24.66,-32.63,0
1278151.0,0.002,0.008,-0.005,58.09,-160.66,0
1278156.0,0.016,-0.016,0.017,-34.79,-43.19,0
1278161.0,-0.013,0.017,0.034,25.63,20.72,0
1278166.0,0.021,-0.014,0.007,-32.07,-70.31,0
1278171.0,0.009,-0.016,0.005,-58.02,-60.19,0
1278176.0,-0.006,0.008,-0.024,17.64,166.74,0
1278181.0,-0.02,-0.011,0.034,-16.23,30.58,0
1278186.0,0.004,-0.014,-0.017,-39.09,-166.42,0
1278191.0,0.002,-0.038,0.0,-87.55,-81.44,0
1278196.0,-0.022,0.01,0.005,23.87,77.32,0
1278201.0,-0.02,0.001,0.019,1.15,45.81,0
1278206.0,0.006,0.027,-0.031,40.46,-168.32,0
1278211.0,0.018,-0.004,0.007,-12.06,-67.98,0
1278216.0,0.006,0.013,0.024,26.61,-14.79,0
1278221.0,-0.013,0.01,-0.012,30.31,132.57,0
1278226.0,-0.008,0.003,-0.017,9.14,154.21,0
1278231.0,-0.003,0.001,-0.012,2.63,164.78,0
1278236.0,-0.041,0.036,0.003,41.25,86.37,0
1278241.0,-0.001,-0.011,0.003,-76.44,16.85,0
1278246.0,0.021,0.005,0.022,10.08,-43.6,0
1278251.0,-0.015,0.015,-0.024,27.94,147.39,0
1278256.0,0.009,0.01,-0.021,23.74,-157.61,0
1278261.0,-0.015,0.025,-0.005,57.13,106.7,0
1278266.0,-0.006,0.008,-0.007,40.98,141.17,0
1278271.0,0.018,-0.002,-0.002,-5.67,-96.69,0
1278276.0,0.009,0.022,-0.021,43.81,-157.61,0
1278281.0,0.014,-0.004,0.0,-17.31,-88.99,0
1278286.0,-0.025,0.01,-0.017,18.81,123.73,0
1278291.0,0.033,0.008,-0.012,12.56,-109.72,0
1278296.0,0.004,-0.002,0.024,-4.28,-9.37,0
1278301.0,-0.008,-0.009,0.024,-19.5,18.26,0
1278306.0,-0.008,0.008,-0.009,32.22,139.48,0
1278311.0,-0.013,-0.014,-0.019,-31.17,145.98,0
1278316.0,-0.001,0.015,0.036,22.43,1.26,0
1278321.0,-0.008,-0.009,-0.005,-44.47,119.68,0
1278326.0,0.006,0.032,0.0,78.6,-87.84,0
1278331.0,-0.022,0.005,-0.019,10.35,130.24,0
1278336.0,-0.02,-0.014,-0.031,-20.58,147.14,0
1278341.0,0.002,0.005,0.01,28.26,-9.23,0
1278346.0,0.011,-0.002,0.01,-7.04,-48.7,0
1278351.0,-0.01,-0.009,0.0,-40.99,88.67,0
1278356.0,0.004,0.008,0.005,50.33,-38.43,0
1278361.0,-0.003,0.001,-0.007,4.18,155.3,0
1278366.0,0.006,0.008,-0.019,21.2,-161.35,0
1278371.0,0.006,0.01,0.005,51.28,-51.77,0
1278376.0,0.018,-0.007,-0.024,-12.46,-142.24,0
1278381.0,-0.01,0.001,-0.031,0.98,161.43,0
1278386.0,-0.001,0.013,-0.012,46.82,176.11,0
1278391.0,0.018,0.01,-0.017,22.32,-131.98,0
1278396.0,-0.01,-0.014,-0.007,-47.88,123.79,0
1278401.0,0.006,-0.009,0.003,-52.55,-67.57,0
1278406.0,0.026,0.001,-0.024,0.92,-132.86,0
1278411.0,-0.008,0.013,-0.017,34.33,154.21,0
1278416.0,0.018,0.008,0.017,17.19,-47.2,0
1278421.0,-0.006,0.013,-0.017,35.7,161.31,0
1278426.0,-0.001,0.029,-0.012,68.13,176.11,0
1278431.0,0.033,0.003,0.012,4.83,-69.53,0
1278436.0,-0.006,0.017,0.017,44.06,18.19,0
1278441.0,0.002,0.032,-0.007,77.33,-167.05,0
1278446.0,0.004,0.003,-0.012,13.4,-161.21,0
1278451.0,0.006,0.02,-0.028,34.03,-167.37,0
1278456.0,0.006,-0.019,-0.026,-34.69,-166.25,0
1278461.0,-0.018,-0.004,-0.033,-6.41,152.18,0
1278466.0,-0.022,0.022,-0.009,42.39,112.68,0
1278471.0,0.035,-0.033,0.007,-42.56,-78.06,0
1278476.0,0.002,0.022,-0.012,61.83,-172.25,0
1278481.0,0.009,0.025,0.005,67.56,-60.19,0
1278486.0,0.004,-0.009,-0.021,-22.59,-169.39,0
1278491.0,-0.001,0.032,0.019,58.51,2.36,0
1278496.0,0.002,-0.002,0.012,-8.48,-7.45,0
1278501.0,0.016,-0.011,0.005,-34.29,-72.51,0
1278506.0,-0.003,0.01,-0.007,52.99,155.3,0
1278511.0,0.021,0.003,0.007,7.63,-70.31,0
1278516.0,0.016,0.001,0.01,1.71,-58.41,0
1278521.0,-0.006,0.013,-0.028,23.34,168.91,0
1278526.0,-0.001,0.003,0.051,3.34,0.91,0
1278531.0,0.006,0.013,-0.028,23.23,-167.37,0
1278536.0,-0.006,-0.016,0.015,-46.01,20.93,0
1278541.0,0.021,0.001,-0.043,0.67,-154.16,0
1278546.0,0.004,0.005,-0.031,9.74,-172.64,0
1278551.0,0.014,0.015,0.0,47.72,-88.99,0
1278556.0,0.006,-0.014,0.0,-65.17,-87.84,0
1278561.0,0.014,0.015,0.0,47.72,-88.99,0
1278566.0,0.006,0.02,0.015,51.04,-23.61,0
1278571.0,0.002,0.022,0.019,48.64,-4.7,0
1278576.0,-0.013,-0.023,0.019,-45.2,33.36,0
1278581.0,-0.013,-0.004,-0.012,-13.71,132.57,0
1278586.0,-0.006,0.003,0.003,25.55,64.75,0
1278591.0,0.002,0.027,-0.007,75.17,-167.05,0
1278596.0,0.002,0.003,-0.017,10.09,-174.48,0
1278601.0,-0.008,0.017,0.029,29.96,15.4,0
1278606.0,-0.01,0.017,0.005,56.35,64.14,0
1278611.0,-0.006,-0.011,-0.014,-36.92,158.42,0
1278616.0,0.004,0.036,-0.007,77.62,-150.11,0
1278621.0,0.018,-0.007,0.067,-5.43,-15.26,0
1278626.0,-0.034,0.029,0.01,39.37,74.04,0
1278631.0,-0.015,0.027,-0.038,33.28,158.28,0
1278636.0,-0.049,-0.031,-0.057,-22.14,139.61,0
1278641.0,0.021,0.027,-0.045,28.38,-155.37,0
1278646.0,0.011,0.058,-0.043,52.64,-165.39,0
1278651.0,-0.015,0.032,0.0,64.42,89.09,0
1278656.0,0.045,0.025,0.084,14.43,-28.0,0
1278661.0,0.023,-0.019,0.036,-23.42,-32.63,0
1278666.0,0.004,0.005,0.031,9.6,-7.25,0
1278671.0,0.026,0.017,-0.043,19.14,-149.21,0
1278676.0,-0.013,-0.002,-0.031,-3.14,157.54,0
1278681.0,-0.006,0.02,-0.036,28.63,171.1,0
1278686.0,0.009,0.022,-0.012,56.46,-143.19,0
1278691.0,0.016,0.001,-0.009,1.73,-120.33,0
1278696.0,0.038,-0.023,0.024,-27.65,-57.19,0
1278701.0,0.021,0.008,0.015,16.97,-54.86,0
1278706.0,-0.003,-0.014,-0.012,-48.64,164.78,0
1278711.0,-0.006,-0.019,-0.033,-28.86,170.47,0
1278716.0,-0.003,0.027,-0.002,81.85,124.0,0
1278721.0,0.006,0.017,-0.038,24.16,-170.48,0
1278726.0,-0.001,0.02,-0.002,83.35,159.66,0
1278731.0,-0.015,0.022,0.0,55.55,89.09,0
1278736.0,-0.006,-0.04,0.012,-71.5,24.58,0
1278741.0,0.016,-0.007,0.015,-17.02,-47.54,0
1278746.0,0.002,-0.009,0.005,-59.67,-17.61,0
1278751.0,0.002,-0.002,-0.009,-10.97,-170.3,0
1278756.0,-0.003,-0.014,0.005,-66.66,32.41,0
1278761.0,0.009,0.001,-0.019,1.53,-155.1,0
1278766.0,-0.018,-0.002,0.015,-4.6,50.24,0
1278771.0,0.014,0.005,-0.009,17.99,-124.53,0
1278776.0,-0.003,0.02,-0.048,22.43,176.17,0
1278781.0,-0.018,0.003,-0.048,3.33,159.77,0
1278786.0,-0.018,0.017,-0.024,30.42,143.47,0
1278791.0,0.018,0.017,0.0,43.33,-89.25,0
1278796.0,0.002,-0.023,-0.024,-44.55,-176.15,0
1278801.0,0.004,-0.026,-0.028,-41.86,-172.03,0
1278806.0,0.006,0.034,0.029,48.96,-12.43,0
1278811.0,-0.003,-0.014,-0.036,-21.08,174.89,0
1278816.0,-0.025,0.02,-0.012,35.75,115.37,0
1278821.0,0.014,0.008,0.039,10.73,-19.39,0
1278826.0,0.009,0.027,0.022,48.87,-21.94,0
1278831.0,-0.027,-0.009,-0.007,-17.85,104.35,0
1278836.0,-0.006,-0.016,-0.005,-66.03,129.15,0
1278841.0,0.021,0.003,0.007,7.63,-70.31,0
1278846.0,-0.008,0.02,-0.002,67.25,105.1,0
1278851.0,0.011,0.036,0.012,65.59,-42.46,0
1278856.0,-0.02,-0.004,0.022,-8.15,42.48,0
1278861.0,-0.008,-0.009,-0.033,-14.76,166.51,0
1278866.0,0.033,-0.014,-0.024,-18.87,-125.92,0
1278871.0,-0.018,0.015,-0.014,33.52,128.82,0
1278876.0,0.021,0.022,-0.012,42.84,-119.48,0
1278881.0,0.014,0.022,0.01,52.85,-54.11,0
1278886.0,-0.02,0.029,-0.005,55.06,102.84,0
1278891.0,-0.046,-0.174,0.055,-67.51,39.93,0
1278896.0,0.186,0.199,-0.21,35.36,-138.54,0
1278901.0,-0.228,-0.165,-0.299,-23.64,142.65,0
1278906.0,0.121,0.443,0.587,36.51,-11.68,0
1278911.0,0.061,-0.514,-0.213,-66.69,-163.9,0
1278916.0,-0.326,0.242,-0.079,35.82,103.57,0
1278921.0,0.107,-0.11,0.153,-30.36,-34.87,0
1278926.0,-0.128,0.06,0.017,25.13,82.42,0
1278931.0,0.009,-0.119,0.194,-31.51,-2.59,0
1278936.0,-0.202,0.288,0.446,30.48,24.38,0
1278941.0,-0.094,-0.392,-0.172,-63.41,151.32,0
1278946.0,0.547,0.25,0.192,23.28,-70.7,0
1278951.0,-0.604,-0.713,-0.143,-48.95,103.35,0
1278956.0,0.31,0.477,-0.249,50.17,-128.7,0
1278961.0,-0.451,-0.361,-0.735,-22.72,148.46,0
1278966.0,0.188,0.451,0.623,34.71,-16.83,0
1278971.0,-0.164,-0.062,0.85,-4.08,10.89,0
1278976.0,0.255,0.353,-0.831,22.08,-162.91,0
1278981.0,-0.93,-0.703,-1.307,-23.68,144.57,0
1278986.0,0.332,0.661,0.601,43.92,-28.91,0
1278991.0,-0.463,-0.529,0.175,-46.89,69.29,0
1278996.0,0.112,0.443,-0.706,31.82,-171.01,0
1279001.0,-0.384,-0.643,-0.673,-39.73,150.28,0
1279006.0,0.437,0.278,0.486,23.05,-41.97,0
1279011.0,-0.362,-0.495,0.084,-53.08,76.94,0
1279016.0,0.361,0.63,0.022,60.17,-86.54,0
1279021.0,-0.458,-0.414,0.12,-41.14,75.33,0
1279026.0,0.385,0.3,0.323,30.82,-49.94,0
1279031.0,-0.477,-0.462,-0.476,-34.39,134.94,0
1279036.0,0.267,0.388,-0.261,46.13,-134.28,0
1279041.0,-0.449,-0.332,-0.098,-35.89,102.32,0
1279046.0,0.373,0.405,0.218,43.18,-59.66,0
1279051.0,-0.377,-0.505,-0.378,-43.4,135.1,0
1279056.0,0.267,0.455,0.079,58.52,-73.49,0
1279061.0,-0.408,-0.478,-0.175,-47.15,113.17,0
1279066.0,0.32,0.46,0.108,53.73,-71.36,0
1279071.0,-0.403,-0.44,-0.096,-46.73,103.33,0
1279076.0,0.284,0.381,0.204,47.48,-54.35,0
1279081.0,-0.396,-0.232,-0.206,-27.45,117.45,0
1279086.0,0.342,0.343,0.06,44.68,-80.02,0
1279091.0,-0.403,-0.394,-0.153,-42.46,110.79,0
1279096.0,0.263,0.36,0.027,53.73,-84.22,0
1279101.0,-0.362,-0.409,-0.409,-36.8,138.47,0
1279106.0,0.294,0.451,0.062,56.33,-77.99,0
1279111.0,-0.41,-0.347,-0.165,-38.09,111.91,0
1279116.0,0.196,0.427,0.079,63.69,-67.94,0
1279121.0,-0.326,-0.483,-0.218,-50.92,123.69,0
1279126.0,0.059,0.427,0.0,82.12,-89.77,0
1279131.0,-0.427,-0.359,-0.28,-35.08,123.25,0
1279136.0,0.253,0.386,0.046,56.34,-79.75,0
1279141.0,-0.422,-0.306,-0.201,-33.2,115.45,0
1279146.0,0.32,0.278,0.161,37.85,-63.34,0
1279151.0,-0.341,-0.275,-0.198,-34.87,120.22,0
1279156.0,0.301,0.412,0.034,53.71,-83.6,0
1279161.0,-0.214,-0.418,-0.189,-55.71,131.45,0
1279166.0,0.212,0.273,0.029,51.93,-82.23,0
1279171.0,-0.377,-0.402,-0.333,-38.64,131.44,0
1279176.0,0.085,0.285,-0.091,66.42,-136.74,0
1279181.0,-0.391,-0.193,-0.222,-23.26,119.63,0
1279186.0,0.196,0.295,0.11,52.73,-60.56,0
1279191.0,-0.365,-0.294,-0.254,-33.49,124.81,0
1279196.0,0.198,0.226,0.108,45.02,-61.38,0
1279201.0,-0.334,-0.26,-0.134,-35.92,111.86,0
1279206.0,0.229,0.319,0.103,51.78,-65.75,0
1279211.0,-0.252,-0.289,-0.294,-36.73,139.4,0
1279216.0,0.215,0.364,0.012,59.46,-86.74,0
1279221.0,-0.183,-0.354,-0.172,-54.64,133.29,0
1279226.0,0.205,0.302,0.098,53.03,-64.37,0
1279231.0,-0.343,-0.304,-0.258,-35.24,126.97,0
1279236.0,0.138,0.35,0.007,68.45,-86.92,0
1279241.0,-0.29,-0.32,-0.249,-39.94,130.57,0
1279246.0,0.057,0.211,-0.007,74.88,-96.98,0
1279251.0,-0.346,-0.258,-0.215,-32.37,121.92,0
1279256.0,0.121,0.379,0.089,68.35,-53.79,0
1279261.0,-0.281,-0.277,-0.301,-33.93,137.02,0
1279266.0,0.215,0.257,-0.043,49.55,-101.29,0
1279271.0,-0.247,-0.476,-0.242,-54.0,134.32,0
1279276.0,0.186,0.331,0.127,55.76,-55.64,0
1279281.0,-0.245,-0.167,-0.165,-29.49,123.95,0
1279286.0,0.128,0.293,-0.021,66.01,-99.42,0
1279291.0,-0.283,-0.373,-0.254,-44.45,131.83,0
1279296.0,0.093,0.202,0.137,50.69,-34.1,0
1279301.0,-0.211,-0.11,-0.062,-26.44,106.34,0
1279306.0,0.018,0.194,-0.048,75.29,-158.93,0
1279311.0,-0.238,-0.272,-0.412,-29.81,149.98,0
1279316.0,0.198,0.211,0.091,44.11,-65.26,0
1279321.0,-0.24,-0.119,-0.026,-26.25,96.2,0
1279326.0,0.136,0.293,0.086,61.2,-57.5,0
1279331.0,-0.279,-0.397,-0.426,-37.95,146.82,0
1279336.0,0.069,0.331,0.031,77.16,-65.44,0
1279341.0,-0.156,-0.232,-0.04,-55.11,104.5,0
1279346.0,0.033,0.266,-0.064,74.82,-153.07,0
1279351.0,-0.283,-0.21,-0.354,-24.86,141.34,0
1279356.0,0.088,0.113,-0.017,51.69,-100.66,0
1279361.0,-0.269,-0.105,-0.395,-12.37,145.74,0
1279366.0,0.148,0.228,-0.005,57.06,-91.76,0
1279371.0,-0.159,-0.304,0.034,-61.85,78.0,0
1279376.0,-0.008,0.199,0.055,74.34,8.21,0
1279381.0,-0.171,-0.217,-0.146,-44.06,130.49,0
1279386.0,0.081,0.216,0.156,50.92,-27.35,0
1279391.0,-0.302,-0.229,0.204,-32.16,56.04,0
1279396.0,0.184,0.422,0.216,56.13,-40.39,0
1279401.0,-0.176,-0.368,-0.385,-41.01,155.5,0
1279406.0,0.076,0.314,-0.074,71.37,-134.3,0
1279411.0,-0.161,-0.411,-0.182,-59.43,138.42,0
1279416.0,0.064,0.187,0.06,64.92,-46.73,0
1279421.0,-0.295,-0.402,-0.136,-51.01,114.77,0
1279426.0,0.045,0.245,-0.06,73.07,-143.14,0
1279431.0,-0.178,-0.256,-0.225,-41.72,141.63,0
1279436.0,-0.046,0.226,0.11,62.05,22.75,0
1279441.0,-0.19,-0.272,-0.139,-49.2,126.12,0
1279446.0,0.049,0.264,-0.036,76.99,-125.79,0
1279451.0,-0.223,-0.299,-0.452,-30.63,153.71,0
1279456.0,0.064,0.24,0.141,57.1,-24.29,0
1279461.0,-0.305,-0.402,-0.06,-52.28,101.06,0
1279466.0,0.049,0.202,0.031,73.8,-57.63,0
1279471.0,-0.051,-0.236,-0.069,-70.01,143.57,0
1279476.0,-0.008,0.206,0.072,70.65,6.32,0
1279481.0,-0.001,-0.236,-0.163,-55.49,179.72,0
1279486.0,-0.034,0.276,0.156,59.95,12.42,0
1279491.0,-0.109,-0.224,0.003,-64.19,88.61,0
1279496.0,0.052,0.262,0.156,57.87,-18.41,0
1279501.0,-0.247,-0.428,0.01,-59.95,87.73,0
1279506.0,-0.085,0.477,0.383,50.55,12.45,0
1279511.0,-0.099,-0.375,0.0,-75.23,89.86,0
1279516.0,-0.015,0.424,0.027,85.88,29.71,0
1279521.0,-0.018,-0.397,-0.198,-63.34,174.94,0
1279526.0,0.059,0.391,0.084,75.27,-35.1,0
1279531.0,0.026,-0.397,-0.084,-77.58,-163.0,0
1279536.0,-0.034,0.511,0.175,70.74,11.09,0
1279541.0,-0.326,-0.406,-0.017,-51.2,92.9,0
1279546.0,0.401,0.415,0.122,44.66,-73.05,0
1279551.0,-0.389,-0.435,-0.103,-47.27,104.8,0
1279556.0,0.356,0.501,0.127,52.97,-70.34,0
1279561.0,-0.298,-0.471,-0.175,-53.78,120.38,0
1279566.0,0.468,0.451,0.065,43.62,-82.11,0
1279571.0,-0.305,-0.471,-0.021,-57.03,94.0,0
1279576.0,0.433,0.496,0.283,43.83,-56.83,0
1279581.0,-0.322,-0.452,-0.103,-53.24,107.71,0
1279586.0,0.306,0.396,0.108,50.67,-70.54,0
1279591.0,-0.276,-0.39,-0.045,-54.32,99.31,0
1279596.0,0.351,0.408,0.156,46.69,-66.07,0
1279601.0,-0.393,-0.488,-0.187,-48.25,115.36,0
1279606.0,0.327,0.427,0.165,49.33,-63.18,0
1279611.0,-0.302,-0.299,-0.086,-43.53,105.86,0
1279616.0,0.483,0.4,0.098,39.1,-78.48,0
1279621.0,-0.298,-0.442,0.007,-56.05,88.57,0
1279626.0,0.387,0.372,0.307,36.96,-51.61,0
1279631.0,-0.346,-0.366,-0.194,-42.72,119.27,0
1279636.0,0.315,0.41,-0.074,51.7,-103.21,0
1279641.0,-0.381,-0.344,-0.067,-41.63,99.93,0
1279646.0,0.136,0.36,0.144,61.2,-43.32,0
1279651.0,-0.374,-0.366,-0.254,-38.97,124.11,0
1279656.0,0.258,0.432,-0.036,58.91,-97.88,0
1279661.0,-0.449,-0.349,-0.237,-34.53,117.83,0
1279666.0,0.303,0.326,0.074,46.25,-76.21,0
1279671.0,-0.279,-0.32,-0.266,-39.77,133.63,0
1279676.0,0.291,0.379,-0.105,50.74,-109.84,0
1279681.0,-0.336,-0.457,-0.22,-48.67,123.22,0
1279686.0,0.31,0.403,0.285,43.7,-47.43,0
1279691.0,-0.259,-0.471,0.067,-60.37,75.46,0
1279696.0,0.246,0.432,0.139,56.79,-60.49,0
1279701.0,-0.377,-0.28,-0.191,-33.49,116.92,0
1279706.0,0.303,0.214,0.058,34.69,-79.23,0
1279711.0,-0.262,-0.289,-0.1,-45.89,110.97,0
1279716.0,0.284,0.455,0.125,55.73,-66.3,0
1279721.0,-0.235,-0.418,-0.239,-51.27,135.45,0
1279726.0,0.2,0.271,-0.1,50.43,-116.6,0
1279731.0,-0.456,-0.402,-0.335,-35.38,126.32,0
1279736.0,0.21,0.453,0.11,62.37,-62.26,0
1279741.0,-0.437,-0.263,-0.172,-29.25,111.52,0
1279746.0,0.128,0.226,-0.076,56.47,-120.73,0
1279751.0,-0.31,-0.378,-0.093,-49.43,106.74,0
1279756.0,0.234,0.384,0.153,53.9,-56.72,0
1279761.0,-0.374,-0.268,-0.297,-29.26,128.4,0
1279766.0,0.272,0.271,-0.017,44.84,-93.47,0
1279771.0,-0.374,-0.318,-0.105,-39.27,105.69,0
1279776.0,0.16,0.305,0.0,62.35,-89.91,0
1279781.0,-0.384,-0.332,-0.392,-31.18,135.63,0
1279786.0,0.217,0.386,0.079,59.09,-69.94,0
1279791.0,-0.47,-0.354,-0.187,-34.98,111.64,0
1279796.0,0.164,0.319,-0.175,53.07,-136.71,0
1279801.0,-0.305,-0.33,-0.263,-39.32,130.8,0
1279806.0,0.095,0.333,0.113,66.14,-40.1,0
1279811.0,-0.305,-0.323,-0.254,-39.14,129.75,0
1279816.0,0.222,0.336,-0.05,55.89,-102.71,0
1279821.0,-0.302,-0.33,-0.203,-42.15,123.9,0
1279826.0,0.124,0.295,0.036,66.4,-73.71,0
1279831.0,-0.341,-0.284,-0.299,-32.1,131.27,0
1279836.0,0.093,0.326,-0.081,69.32,-131.24,0
1279841.0,-0.305,-0.251,-0.182,-35.25,120.8,0
1279846.0,0.114,0.156,0.046,51.79,-68.16,0
1279851.0,-0.437,-0.311,-0.321,-29.84,126.29,0
1279856.0,0.117,0.295,-0.081,64.3,-124.86,0
1279861.0,-0.214,-0.169,-0.103,-35.53,115.65,0
1279866.0,0.217,0.233,0.118,43.32,-61.56,0
1279871.0,-0.334,-0.308,-0.373,-31.63,138.21,0
1279876.0,0.164,0.319,-0.072,60.66,-113.53,0
1279881.0,-0.259,-0.287,-0.184,-42.03,125.37,0
1279886.0,0.093,0.3,0.06,69.79,-57.01,0
1279891.0,-0.314,-0.368,-0.194,-44.91,121.63,0
1279896.0,0.064,0.293,0.084,70.17,-37.22,0
1279901.0,-0.317,-0.172,-0.263,-22.65,129.71,0
1279906.0,0.09,0.257,-0.081,64.71,-131.99,0
1279911.0,-0.231,-0.335,-0.289,-42.12,141.45,0
1279916.0,0.15,0.271,-0.052,59.62,-109.26,0
1279921.0,-0.271,-0.268,-0.309,-33.07,138.68,0
1279926.0,0.157,0.247,0.048,56.37,-72.98,0
1279931.0,-0.365,-0.363,-0.246,-39.54,124.04,0
1279936.0,-0.03,0.254,-0.143,60.07,168.37,0
1279941.0,-0.305,-0.258,-0.335,-29.67,137.69,0
1279946.0,-0.03,0.278,0.027,81.88,48.01,0
1279951.0,-0.274,-0.275,-0.136,-41.94,116.46,0
1279956.0,0.109,0.151,0.146,39.66,-36.77,0
1279961.0,-0.18,-0.153,-0.007,-40.23,92.2,0
1279966.0,0.327,0.288,0.082,40.48,-75.99,0
1279971.0,-0.192,-0.32,-0.371,-37.47,152.59,0
1279976.0,0.272,0.297,0.173,42.71,-57.61,0
1279981.0,-0.022,-0.414,0.074,-79.36,16.7,0
1279986.0,0.033,0.226,-0.028,79.11,-131.05,0
1279991.0,-0.326,-0.301,-0.412,-29.82,141.58,0
1279996.0,-0.087,0.309,0.039,72.91,66.1,0
1280001.0,-0.178,-0.114,0.065,-31.12,69.97,0
1280006.0,0.083,0.173,0.144,46.15,-29.98,0
1280011.0,-0.121,-0.394,-0.316,-49.41,159.11,0
1280016.0,0.188,0.233,0.043,50.3,-77.04,0
1280021.0,-0.063,-0.292,0.096,-68.5,33.29,0
1280026.0,0.109,0.305,0.13,60.91,-40.17,0
1280031.0,-0.188,-0.366,-0.452,-36.76,157.48,0
1280036.0,-0.001,0.245,-0.208,49.63,179.78,0
1280041.0,-0.166,-0.217,-0.048,-51.53,106.01,0
1280046.0,0.009,0.264,0.376,35.05,-1.34,0
1280051.0,-0.233,-0.325,-0.175,-48.15,126.83,0
1280056.0,0.018,0.247,-0.052,77.33,-160.71,0
1280061.0,-0.279,-0.292,0.003,-46.31,89.46,0
1280066.0,0.028,0.305,0.23,52.73,-6.92,0
1280071.0,-0.041,-0.371,0.067,-77.96,31.67,0
1280076.0,-0.039,0.271,0.122,64.65,17.73,0
1280081.0,-0.039,-0.193,-0.268,-35.53,171.7,0
1280086.0,0.045,0.144,0.058,63.16,-37.76,0
1280091.0,-0.219,-0.294,0.197,-44.99,48.05,0
1280096.0,0.014,0.448,0.232,62.55,-3.34,0
1280101.0,-0.343,-0.502,-0.27,-48.98,128.23,0
1280106.0,0.011,0.46,0.067,81.57,-9.43,0
1280111.0,-0.111,-0.44,0.146,-67.35,37.17,0
1280116.0,0.049,0.491,0.199,67.35,-13.97,0
1280121.0,-0.058,-0.383,-0.242,-56.99,166.44,0
1280126.0,0.045,0.432,0.177,67.02,-14.14,0
1280131.0,-0.087,-0.335,0.053,-73.08,58.69,0
1280136.0,0.397,0.408,0.17,43.36,-66.77,0
1280141.0,-0.389,-0.45,-0.122,-47.82,107.41,0
1280146.0,0.346,0.484,0.086,53.6,-75.99,0
1280151.0,-0.391,-0.502,-0.143,-50.33,110.14,0
1280156.0,0.325,0.441,0.062,53.13,-79.11,0
1280161.0,-0.372,-0.375,-0.187,-42.05,116.63,0
1280166.0,0.373,0.398,0.024,46.82,-86.29,0
1280171.0,-0.374,-0.356,-0.196,-40.13,117.65,0
1280176.0,0.322,0.443,0.031,53.85,-84.44,0
1280181.0,-0.429,-0.356,-0.194,-37.1,114.28,0
1280186.0,0.294,0.465,0.003,57.72,-89.49,0
1280191.0,-0.381,-0.301,-0.141,-36.51,110.29,0
1280196.0,0.437,0.35,0.249,34.82,-60.32,0
1280201.0,-0.367,-0.347,-0.06,-42.98,99.22,0
1280206.0,0.334,0.326,0.074,43.59,-77.45,0
1280211.0,-0.298,-0.318,-0.17,-42.85,119.69,0
1280216.0,0.31,0.443,0.089,53.94,-74.03,0
1280221.0,-0.35,-0.509,-0.028,-55.39,94.65,0
1280226.0,0.351,0.475,0.189,49.95,-61.66,0
1280231.0,-0.47,-0.27,-0.277,-26.32,120.55,0
1280236.0,0.265,0.396,-0.16,51.95,-121.15,0
1280241.0,-0.326,-0.464,-0.124,-53.03,110.84,0
1280246.0,0.298,0.295,0.244,37.41,-50.68,0
1280251.0,-0.379,-0.368,-0.129,-42.59,108.8,0
1280256.0,0.406,0.556,0.06,53.55,-81.58,0
1280261.0,-0.338,-0.469,-0.213,-49.54,122.17,0
1280266.0,0.2,0.391,0.041,62.38,-78.45,0
1280271.0,-0.425,-0.39,-0.189,-39.98,113.99,0
1280276.0,0.303,0.463,0.113,55.03,-69.6,0
1280281.0,-0.453,-0.402,-0.249,-37.84,118.76,0
1280286.0,0.241,0.271,0.015,48.31,-86.53,0
1280291.0,-0.243,-0.335,0.029,-53.86,83.19,0
1280296.0,0.351,0.436,0.256,45.1,-53.86,0
1280301.0,-0.295,-0.375,-0.282,-42.58,133.71,0
1280306.0,0.356,0.336,0.031,43.22,-84.96,0
1280311.0,-0.29,-0.414,-0.021,-54.85,94.19,0
1280316.0,0.241,0.448,0.225,53.65,-46.93,0
1280321.0,-0.42,-0.351,-0.239,-36.03,119.67,0
1280326.0,0.172,0.297,-0.064,58.36,-110.57,0
1280331.0,-0.456,-0.373,-0.213,-36.56,115.04,0
1280336.0,0.246,0.412,0.077,58.01,-72.64,0
1280341.0,-0.274,-0.339,-0.172,-46.39,122.16,0
1280346.0,0.231,0.35,-0.069,55.4,-106.64,0
1280351.0,-0.334,-0.349,-0.277,-38.81,129.75,0
1280356.0,0.296,0.348,0.079,48.6,-75.02,0
1280361.0,-0.324,-0.354,-0.177,-43.78,118.64,0
1280366.0,0.061,0.262,-0.141,59.54,-156.45,0
1280371.0,-0.293,-0.193,-0.134,-30.98,114.56,0
1280376.0,0.191,0.233,0.261,35.74,-36.14,0
1280381.0,-0.403,-0.205,-0.141,-25.68,109.28,0
1280386.0,0.272,0.238,-0.146,37.58,-118.18,0
1280391.0,-0.374,-0.246,-0.275,-27.91,126.31,0
1280396.0,0.294,0.266,0.041,41.93,-82.06,0
1280401.0,-0.346,-0.299,-0.258,-34.7,126.78,0
1280406.0,0.112,0.338,0.065,69.09,-59.86,0
1280411.0,-0.408,-0.284,-0.17,-32.77,112.6,0
1280416.0,0.078,0.317,-0.04,74.46,-117.35,0
1280421.0,-0.415,-0.296,-0.311,-29.74,126.85,0
1280426.0,0.107,0.235,-0.043,63.9,-111.84,0
1280431.0,-0.302,-0.248,-0.179,-35.24,120.66,0
1280436.0,0.212,0.384,-0.017,60.97,-94.45,0
1280441.0,-0.195,-0.349,-0.258,-47.17,142.99,0
1280446.0,0.224,0.266,0.053,49.13,-76.72,0
1280451.0,-0.324,-0.304,-0.313,-33.95,134.05,0
1280456.0,0.222,0.314,-0.081,53.06,-110.09,0
1280461.0,-0.367,-0.253,-0.225,-30.47,121.48,0
1280466.0,0.045,0.223,0.062,71.01,-35.57,0
1280471.0,-0.444,-0.301,-0.292,-29.55,123.33,0
1280476.0,0.042,0.343,0.027,81.71,-57.86,0
1280481.0,-0.367,-0.22,-0.127,-29.5,109.03,0
1280486.0,0.066,0.226,0.036,71.51,-61.37,0
1280491.0,-0.223,-0.296,-0.234,-42.46,136.37,0
1280496.0,0.234,0.343,0.096,53.61,-67.68,0
1280501.0,-0.235,-0.232,-0.268,-33.01,138.69,0
1280506.0,0.243,0.245,-0.081,43.65,-108.44,0
1280511.0,-0.264,-0.447,-0.282,-49.15,136.9,0
1280516.0,0.076,0.345,-0.093,70.82,-140.85,0
1280521.0,-0.302,-0.289,-0.237,-36.97,128.06,0
1280526.0,0.021,0.364,0.134,69.55,-8.78,0
1280531.0,-0.348,-0.32,-0.16,-39.9,114.72,0
1280536.0,0.023,0.273,-0.052,78.16,-156.18,0
1280541.0,-0.202,-0.315,-0.246,-44.72,140.66,0
1280546.0,0.145,0.309,0.082,61.7,-60.66,0
1280551.0,-0.267,-0.241,-0.246,-33.61,132.75,0
1280556.0,0.179,0.254,-0.074,52.74,-112.48,0
1280561.0,-0.269,-0.26,-0.311,-32.35,139.15,0
1280566.0,0.054,0.209,-0.079,65.39,-145.43,0
1280571.0,-0.302,-0.335,-0.182,-43.48,121.0,0
1280576.0,0.016,0.357,0.067,79.05,-13.35,0
1280581.0,-0.298,-0.167,-0.038,-29.1,97.29,0
1280586.0,0.114,0.271,-0.007,67.13,-93.48,0
1280591.0,-0.25,-0.337,-0.285,-41.67,138.73,0
1280596.0,0.097,0.264,0.034,68.67,-70.88,0
1280601.0,-0.094,-0.162,-0.172,-39.59,151.32,0
1280606.0,-0.025,0.163,-0.194,39.92,172.72,0
1280611.0,-0.25,-0.361,-0.378,-38.54,146.54,0
1280616.0,0.073,0.178,0.06,61.9,-50.7,0
1280621.0,-0.267,-0.373,0.151,-50.59,60.46,0
1280626.0,0.143,0.374,0.192,57.41,-36.68,0
1280631.0,-0.243,-0.433,-0.443,-40.61,151.28,0
1280636.0,-0.058,0.125,-0.131,41.02,156.1,0
1280641.0,-0.123,-0.201,0.07,-54.84,60.45,0
1280646.0,0.066,0.331,0.031,77.51,-64.66,0
1280651.0,-0.18,-0.349,-0.256,-48.1,144.83,0
1280656.0,0.009,0.202,0.386,27.6,-1.3,0
1280661.0,-0.267,-0.327,0.17,-45.99,57.44,0
1280666.0,0.124,0.305,-0.184,53.94,-146.1,0
1280671.0,-0.142,-0.215,-0.158,-45.35,138.0,0
1280676.0,0.059,0.307,0.211,54.49,-15.64,0
1280681.0,-0.049,-0.244,-0.036,-76.09,126.23,0
1280686.0,0.016,0.46,0.127,74.44,-7.16,0
1280691.0,-0.221,-0.394,0.122,-57.36,61.04,0
1280696.0,0.021,0.381,0.189,63.45,-6.25,0
1280701.0,-0.386,-0.38,-0.136,-42.86,109.43,0
1280706.0,0.023,0.345,0.113,71.56,-11.6,0
1280711.0,-0.14,-0.394,0.024,-70.24,80.18,0
1280716.0,0.09,0.432,0.089,73.65,-45.43,0
1280721.0,-0.128,-0.361,-0.163,-60.2,141.85,0
1280726.0,-0.003,0.388,0.17,66.33,1.07,0
1280731.0,-0.319,-0.416,-0.021,-52.44,93.82,0
1280736.0,0.456,0.415,0.141,40.95,-72.78,0
1280741.0,-0.295,-0.32,0.055,-46.83,79.39,0
1280746.0,0.464,0.374,0.254,35.28,-61.28,0
1280751.0,-0.245,-0.39,-0.028,-57.67,96.63,0
1280756.0,0.318,0.333,0.039,46.17,-83.08,0
1280761.0,-0.293,-0.354,-0.091,-49.08,107.21,0
1280766.0,0.459,0.357,0.221,35.06,-64.33,0
1280771.0,-0.271,-0.335,-0.096,-49.32,109.39,0
1280776.0,0.339,0.305,0.07,41.34,-78.39,0
1280781.0,-0.35,-0.473,-0.04,-53.32,96.59,0
1280786.0,0.368,0.506,0.259,48.35,-54.87,0
1280791.0,-0.35,-0.361,-0.093,-44.88,104.89,0
1280796.0,0.366,0.424,0.074,48.68,-78.49,0
1280801.0,-0.36,-0.442,-0.048,-50.62,97.54,0
1280806.0,0.346,0.331,0.173,40.54,-63.51,0
1280811.0,-0.279,-0.299,-0.175,-42.26,122.07,0
1280816.0,0.334,0.379,0.055,48.18,-80.61,0
1280821.0,-0.374,-0.32,-0.04,-40.39,96.17,0
1280826.0,0.413,0.326,0.175,36.0,-67.05,0
1280831.0,-0.403,-0.361,-0.072,-41.41,100.07,0
1280836.0,0.267,0.487,0.041,60.93,-81.29,0
1280841.0,-0.36,-0.435,-0.21,-46.23,120.31,0
1280846.0,0.188,0.295,0.003,57.45,-89.2,0
1280851.0,-0.451,-0.304,-0.21,-31.38,115.02,0
1280856.0,0.342,0.429,0.139,49.32,-67.84,0
1280861.0,-0.343,-0.375,-0.134,-45.54,111.31,0
1280866.0,0.308,0.353,0.084,47.83,-74.74,0
1280871.0,-0.336,-0.44,-0.16,-49.77,115.49,0
1280876.0,0.382,0.429,0.043,48.12,-83.53,0
1280881.0,-0.377,-0.423,-0.244,-43.32,122.93,0
1280886.0,0.373,0.422,0.177,45.63,-64.54,0
1280891.0,-0.183,-0.45,0.01,-67.85,86.93,0
1280896.0,0.102,0.408,-0.124,68.46,-140.58,0
1280901.0,-0.346,-0.339,-0.237,-39.02,124.42,0
1280906.0,0.327,0.245,0.244,30.93,-53.24,0
1280911.0,-0.535,-0.265,-0.23,-24.5,113.24,0
1280916.0,0.272,0.381,-0.105,52.58,-111.12,0
1280921.0,-0.269,-0.354,-0.122,-50.15,114.38,0
1280926.0,0.258,0.348,0.221,45.71,-49.46,0
1280931.0,-0.427,-0.418,-0.191,-41.81,114.13,0
1280936.0,0.33,0.511,-0.067,56.63,-101.46,0
1280941.0,-0.281,-0.385,-0.1,-52.23,109.65,0
1280946.0,0.2,0.35,0.086,58.07,-66.66,0
1280951.0,-0.429,-0.356,-0.349,-32.76,129.13,0
1280956.0,0.222,0.376,-0.048,58.92,-102.12,0
1280961.0,-0.396,-0.385,-0.129,-42.75,108.06,0
1280966.0,0.188,0.343,-0.009,61.19,-92.84,0
1280971.0,-0.494,-0.383,-0.414,-30.69,129.96,0
1280976.0,0.217,0.47,-0.052,64.58,-103.58,0
1280981.0,-0.362,-0.361,-0.146,-42.74,111.92,0
1280986.0,0.124,0.317,-0.055,66.86,-113.9,0
1280991.0,-0.372,-0.339,-0.297,-35.51,128.58,0
1280996.0,0.243,0.355,0.048,55.04,-78.82,0
1281001.0,-0.322,-0.409,-0.194,-47.44,121.06,0
1281006.0,0.191,0.319,0.082,56.96,-66.83,0
1281011.0,-0.288,-0.308,-0.096,-45.45,108.34,0
1281016.0,0.289,0.379,0.098,51.14,-71.19,0
1281021.0,-0.319,-0.253,-0.191,-34.23,120.93,0
1281026.0,0.16,0.262,-0.014,58.5,-95.06,0
1281031.0,-0.267,-0.217,-0.139,-35.88,117.48,0
1281036.0,0.243,0.362,0.077,54.82,-72.48,0
1281041.0,-0.393,-0.304,-0.304,-31.41,127.68,0
1281046.0,0.227,0.235,-0.117,42.67,-117.32,0
1281051.0,-0.508,-0.462,-0.311,-37.76,121.46,0
1281056.0,0.179,0.475,0.067,68.08,-69.38,0
1281061.0,-0.326,-0.32,-0.134,-42.23,112.29,0
1281066.0,0.038,0.403,-0.021,83.89,-119.6,0
1281071.0,-0.252,-0.344,-0.23,-45.26,132.32,0
1281076.0,0.136,0.259,0.098,57.11,-54.05,0
1281081.0,-0.288,-0.258,-0.172,-37.55,120.86,0
1281086.0,0.229,0.345,-0.088,54.59,-111.09,0
1281091.0,-0.353,-0.32,-0.323,-33.81,132.48,0
1281096.0,0.236,0.372,0.058,56.8,-76.27,0
1281101.0,-0.216,-0.28,-0.139,-47.42,122.66,0
1281106.0,0.155,0.206,-0.005,53.12,-91.68,0
1281111.0,-0.312,-0.248,-0.323,-28.95,135.99,0
1281116.0,0.1,0.245,0.029,67.0,-73.81,0
1281121.0,-0.264,-0.186,-0.124,-32.53,115.19,0
1281126.0,0.117,0.18,-0.052,54.65,-114.23,0
1281131.0,-0.413,-0.287,-0.431,-25.68,136.23,0
1281136.0,0.114,0.355,-0.007,72.14,-93.48,0
1281141.0,-0.322,-0.208,0.137,-30.73,66.97,0
1281146.0,0.14,0.223,0.022,57.51,-81.18,0
1281151.0,-0.312,-0.371,-0.342,-38.67,137.63,0
1281156.0,0.097,0.305,-0.026,71.69,-105.0,0
1281161.0,-0.159,-0.248,-0.064,-55.4,112.07,0
1281166.0,0.121,0.319,0.106,63.24,-48.96,0
1281171.0,-0.36,-0.38,-0.414,-34.72,138.99,0
1281176.0,0.131,0.264,-0.012,63.53,-95.12,0
1281181.0,-0.135,-0.256,0.098,-56.85,53.89,0
1281186.0,0.028,0.197,0.065,70.26,-23.29,0
1281191.0,-0.207,-0.292,-0.342,-36.1,148.86,0
1281196.0,0.179,0.355,0.051,62.37,-74.22,0
1281201.0,-0.2,-0.308,-0.208,-46.92,136.2,0
1281206.0,0.105,0.252,0.125,57.14,-39.97,0
1281211.0,-0.154,-0.272,-0.074,-57.9,115.66,0
1281216.0,-0.034,0.245,-0.062,73.85,151.04,0
1281221.0,-0.31,-0.347,0.07,-47.52,77.32,0
1281226.0,0.035,0.247,-0.009,81.64,-104.89,0
1281231.0,-0.267,-0.268,-0.136,-41.79,117.07,0
1281236.0,0.097,0.369,0.003,75.22,-88.45,0
1281241.0,-0.183,-0.198,0.043,-46.53,76.66,0
1281246.0,0.009,0.149,0.242,31.6,-2.08,0
1281251.0,-0.341,-0.368,0.055,-46.84,80.78,0
1281256.0,0.023,0.398,0.232,59.59,-5.69,0
1281261.0,-0.305,-0.239,0.074,-37.28,76.27,0
1281266.0,0.088,0.329,0.01,74.95,-83.62,0
1281271.0,-0.118,-0.473,-0.153,-67.79,142.33,0
1281276.0,0.042,0.24,0.139,58.79,-16.91,0
1281281.0,-0.142,-0.253,0.0,-60.71,89.9,0
1281286.0,-0.051,0.252,0.106,65.04,25.82,0
1281291.0,-0.188,-0.332,0.005,-60.55,88.46,0
1281296.0,-0.006,0.257,0.11,66.71,2.9,0
1281301.0,-0.358,-0.265,-0.033,-36.45,95.32,0
1281306.0,0.095,0.336,0.094,68.34,-45.41,0
1281311.0,-0.132,-0.337,-0.038,-67.76,106.03,0
1281316.0,0.052,0.355,0.079,75.06,-33.21,0
1281321.0,-0.094,-0.502,-0.069,-76.9,126.31,0
1281326.0,0.406,0.479,0.204,46.53,-63.36,0
1281331.0,-0.326,-0.375,-0.009,-48.98,91.64,0
1281336.0,0.54,0.35,0.264,30.22,-63.99,0
1281341.0,-0.381,-0.404,0.108,-45.54,74.2,0
1281346.0,0.425,0.403,0.137,42.03,-72.18,0
1281351.0,-0.35,-0.342,-0.165,-41.43,115.21,0
1281356.0,0.339,0.472,0.089,53.41,-75.32,0
1281361.0,-0.264,-0.347,0.029,-52.52,83.74,0
1281366.0,0.38,0.305,0.098,37.82,-75.48,0
1281371.0,-0.286,-0.311,-0.04,-47.11,98.06,0
1281376.0,0.38,0.36,0.161,41.09,-67.08,0
1281381.0,-0.346,-0.399,-0.052,-48.8,98.63,0
1281386.0,0.313,0.391,-0.038,51.12,-96.94,0
1281391.0,-0.437,-0.282,-0.189,-30.66,113.4,0
1281396.0,0.387,0.472,0.17,48.16,-66.26,0
1281401.0,-0.374,-0.392,0.051,-46.07,82.31,0
1281406.0,0.356,0.242,0.103,33.19,-73.83,0
1281411.0,-0.398,-0.332,-0.127,-38.49,107.64,0
1281416.0,0.512,0.436,0.18,38.82,-70.63,0
1281421.0,-0.269,-0.435,-0.117,-56.02,113.52,0
1281426.0,0.385,0.434,0.17,45.89,-66.13,0
1281431.0,-0.326,-0.356,0.055,-47.09,80.38,0
1281436.0,0.325,0.484,0.122,54.37,-69.36,0
1281441.0,-0.518,-0.493,-0.294,-39.59,119.6,0
1281446.0,0.253,0.451,0.007,60.68,-88.32,0
1281451.0,-0.405,-0.368,-0.057,-41.96,98.03,0
1281456.0,0.406,0.463,0.06,48.41,-81.58,0
1281461.0,-0.358,-0.459,-0.175,-49.09,116.02,0
1281466.0,0.332,0.35,0.096,45.37,-73.87,0
1281471.0,-0.281,-0.258,-0.131,-39.76,115.07,0
1281476.0,0.382,0.41,-0.057,46.69,-98.51,0
1281481.0,-0.425,-0.378,-0.222,-38.24,117.65,0
1281486.0,0.239,0.317,0.146,48.52,-58.49,0
1281491.0,-0.456,-0.457,-0.122,-44.08,104.97,0
1281496.0,0.38,0.479,0.034,51.5,-84.92,0
1281501.0,-0.482,-0.402,-0.172,-38.12,109.65,0
1281506.0,0.298,0.432,0.082,54.36,-74.7,0
1281511.0,-0.238,-0.359,-0.096,-54.44,111.88,0
1281516.0,0.31,0.367,0.151,46.74,-64.05,0
1281521.0,-0.329,-0.38,-0.266,-41.97,128.92,0
1281526.0,0.37,0.36,0.036,44.03,-84.42,0
1281531.0,-0.353,-0.366,-0.05,-45.75,98.07,0
1281536.0,0.318,0.403,0.175,48.0,-61.14,0
1281541.0,-0.472,-0.385,-0.239,-36.01,116.85,0
1281546.0,0.21,0.345,0.0,58.71,-89.93,0
1281551.0,-0.417,-0.306,-0.153,-34.53,110.13,0
1281556.0,0.263,0.429,0.101,56.76,-69.0,0
1281561.0,-0.401,-0.43,-0.218,-43.35,118.51,0
1281566.0,0.243,0.391,-0.024,57.96,-95.56,0
1281571.0,-0.381,-0.38,-0.328,-37.08,130.67,0
1281576.0,0.334,0.424,0.003,51.76,-89.55,0
1281581.0,-0.286,-0.392,-0.146,-50.71,117.04,0
1281586.0,0.31,0.343,0.165,44.27,-61.95,0
1281591.0,-0.202,-0.248,-0.093,-48.17,114.76,0
1281596.0,0.196,0.305,-0.072,55.65,-110.11,0
1281601.0,-0.429,-0.349,-0.261,-34.79,121.27,0
1281606.0,0.21,0.262,0.17,44.06,-50.96,0
1281611.0,-0.432,-0.349,-0.117,-37.96,105.17,0
1281616.0,0.176,0.429,-0.124,63.31,-125.17,0
1281621.0,-0.413,-0.371,-0.335,-34.89,129.07,0
1281626.0,0.27,0.312,0.079,47.96,-73.63,0
1281631.0,-0.427,-0.351,-0.175,-37.3,112.23,0
1281636.0,0.124,0.434,-0.175,63.76,-144.67,0
1281641.0,-0.358,-0.366,-0.316,-37.48,131.45,0
1281646.0,0.119,0.281,0.082,62.8,-55.53,0
1281651.0,-0.41,-0.282,-0.158,-32.68,111.04,0
1281656.0,0.148,0.357,-0.225,53.03,-146.71,0
1281661.0,-0.274,-0.299,-0.294,-36.62,137.07,0
1281666.0,0.193,0.302,0.13,52.42,-56.15,0
1281671.0,-0.362,-0.411,-0.182,-45.41,116.64,0
1281676.0,0.21,0.295,-0.028,54.33,-97.73,0
1281681.0,-0.283,-0.236,-0.074,-38.92,104.63,0
1281686.0,0.198,0.204,0.137,40.31,-55.37,0
1281691.0,-0.29,-0.299,-0.163,-41.9,119.23,0
1281696.0,0.306,0.348,0.228,42.37,-53.32,0
1281701.0,-0.209,-0.306,-0.026,-55.44,97.11,0
1281706.0,0.361,0.355,0.113,43.2,-72.64,0
1281711.0,-0.262,-0.476,-0.177,-56.42,124.06,0
1281716.0,0.284,0.448,0.106,55.94,-69.61,0
1281721.0,-0.25,-0.292,-0.263,-38.78,136.49,0
1281726.0,0.047,0.216,-0.148,54.25,-162.37,0
1281731.0,-0.329,-0.363,-0.151,-45.14,114.61,0
1281736.0,0.049,0.252,0.12,62.75,-22.42,0
1281741.0,-0.334,-0.122,-0.045,-19.85,97.72,0
1281746.0,0.057,0.269,-0.139,60.87,-157.77,0
1281751.0,-0.37,-0.272,-0.325,-28.95,131.37,0
1281756.0,0.255,0.271,0.158,42.06,-58.21,0
1281761.0,-0.269,-0.301,-0.172,-43.32,122.62,0
1281766.0,0.117,0.348,-0.074,68.35,-122.41,0
1281771.0,-0.302,-0.323,-0.402,-32.68,143.04,0
1281776.0,0.097,0.144,-0.105,45.19,-137.19,0
1281781.0,-0.173,-0.167,0.101,-39.81,59.8,0
1281786.0,0.126,0.302,0.347,39.28,-19.95,0
1281791.0,-0.319,-0.301,-0.277,-35.45,131.0,0
1281796.0,0.205,0.309,-0.103,53.45,-116.6,0
1281801.0,-0.25,-0.359,-0.009,-55.12,92.14,0
1281806.0,0.14,0.211,0.18,42.8,-38.0,0
1281811.0,-0.279,-0.323,-0.376,-34.6,143.44,0
1281816.0,0.052,0.343,-0.122,68.88,-156.94,0
1281821.0,-0.118,-0.208,0.141,-48.42,39.85,0
1281826.0,0.126,0.214,-0.028,58.82,-102.73,0
1281831.0,-0.307,-0.234,-0.397,-24.99,142.28,0
1281836.0,-0.015,0.273,0.24,48.72,3.62,0
1281841.0,-0.322,-0.213,0.125,-31.64,68.8,0
1281846.0,0.026,0.252,0.156,57.92,-9.31,0
1281851.0,-0.324,-0.371,0.084,-47.91,75.46,0
1281856.0,0.064,0.367,0.125,69.1,-27.1,0
1281861.0,-0.188,-0.239,0.024,-51.63,82.65,0
1281866.0,0.124,0.247,0.125,54.6,-44.76,0
1281871.0,-0.231,-0.406,0.01,-60.41,87.56,0
1281876.0,0.088,0.269,0.153,56.66,-29.77,0
1281881.0,-0.262,-0.282,0.101,-45.15,68.94,0
1281886.0,0.038,0.118,0.189,31.41,-11.2,0
1281891.0,-0.307,-0.181,0.022,-30.49,85.94,0
1281896.0,0.061,0.29,0.168,58.38,-20.11,0
1281901.0,-0.29,-0.296,0.012,-45.54,87.59,0
1281906.0,0.011,0.235,0.165,54.81,-3.86,0
1281911.0,-0.18,-0.189,-0.048,-45.31,104.8,0
1281916.0,0.061,0.345,-0.036,78.37,-120.14,0
1281921.0,-0.073,-0.373,-0.098,-71.9,143.44,0
1281926.0,0.366,0.424,0.151,47.01,-67.54,0
1281931.0,-0.221,-0.387,0.108,-57.57,63.97,0
1281936.0,0.466,0.408,0.213,38.49,-65.41,0
1281941.0,-0.336,-0.406,0.022,-50.36,86.29,0
1281946.0,0.354,0.266,0.146,34.84,-67.52,0
1281951.0,-0.276,-0.232,-0.048,-39.58,99.79,0
1281956.0,0.38,0.405,0.067,46.4,-79.96,0
1281961.0,-0.314,-0.339,0.022,-47.12,86.04,0
1281966.0,0.509,0.348,0.261,31.28,-62.84,0
1281971.0,-0.269,-0.43,0.07,-57.16,75.48,0
1281976.0,0.37,0.415,0.115,46.92,-72.72,0
1281981.0,-0.41,-0.452,-0.105,-46.86,104.37,0
1281986.0,0.428,0.453,0.259,42.18,-58.82,0
1281991.0,-0.204,-0.323,0.173,-50.34,49.8,0
1281996.0,0.502,0.41,0.232,36.54,-65.15,0
1282001.0,-0.31,-0.423,-0.177,-49.88,119.74,0
1282006.0,0.445,0.408,0.019,42.49,-87.5,0
1282011.0,-0.243,-0.347,0.096,-53.03,68.41,0
1282016.0,0.442,0.422,0.254,39.61,-60.12,0
1282021.0,-0.348,-0.244,-0.222,-30.54,122.59,0
1282026.0,0.425,0.281,0.015,33.4,-88.03,0
1282031.0,-0.336,-0.32,0.034,-43.48,84.26,0
1282036.0,0.366,0.384,0.206,42.43,-60.58,0
1282041.0,-0.389,-0.394,-0.208,-41.82,118.16,0
1282046.0,0.385,0.475,0.022,50.93,-86.76,0
1282051.0,-0.408,-0.38,-0.091,-42.3,102.54,0
1282056.0,0.361,0.367,0.182,42.23,-63.2,0
1282061.0,-0.432,-0.464,-0.136,-45.7,107.51,0
1282066.0,0.255,0.345,0.031,53.31,-83.0,0
1282071.0,-0.336,-0.373,-0.028,-47.88,94.85,0
1282076.0,0.428,0.422,0.153,42.87,-70.26,0
1282081.0,-0.31,-0.43,-0.124,-52.22,111.86,0
1282086.0,0.389,0.479,0.125,49.53,-72.24,0
1282091.0,-0.365,-0.354,-0.179,-41.04,116.18,0
1282096.0,0.346,0.338,0.003,44.31,-89.56,0
1282101.0,-0.439,-0.323,-0.182,-34.18,112.49,0
1282106.0,0.258,0.295,0.086,47.34,-71.46,0
1282111.0,-0.489,-0.315,-0.184,-31.11,110.62,0
1282116.0,0.272,0.434,0.062,57.24,-77.07,0
1282121.0,-0.398,-0.428,-0.11,-46.01,105.43,0
1282126.0,0.303,0.405,0.115,51.32,-69.21,0
1282131.0,-0.314,-0.378,-0.184,-46.03,120.35,0
1282136.0,0.387,0.4,0.041,45.81,-83.96,0
1282141.0,-0.283,-0.483,-0.036,-59.41,97.18,0
1282146.0,0.332,0.367,0.189,43.83,-60.3,0
1282151.0,-0.31,-0.284,-0.182,-38.38,120.41,0
1282156.0,0.351,0.388,0.029,47.79,-85.28,0
1282161.0,-0.42,-0.366,-0.093,-40.38,102.51,0
1282166.0,0.351,0.384,0.225,42.6,-57.32,0
1282171.0,-0.427,-0.378,-0.175,-39.31,112.23,0
1282176.0,0.284,0.436,0.019,56.87,-86.09,0
1282181.0,-0.283,-0.287,-0.074,-44.4,104.63,0
1282186.0,0.303,0.348,0.122,46.76,-68.03,0
1282191.0,-0.302,-0.457,-0.191,-51.92,122.31,0
1282196.0,0.387,0.47,0.182,47.68,-64.79,0
1282201.0,-0.293,-0.371,0.01,-51.66,88.08,0
1282206.0,0.231,0.427,-0.026,61.37,-96.43,0
1282211.0,-0.35,-0.45,-0.16,-49.41,114.57,0
1282216.0,0.203,0.391,0.132,58.25,-56.94,0
1282221.0,-0.341,-0.368,-0.069,-46.63,101.48,0
1282226.0,0.303,0.297,0.046,44.12,-81.42,0
1282231.0,-0.314,-0.315,-0.191,-40.6,121.32,0
1282236.0,0.382,0.331,0.058,40.57,-81.42,0
1282241.0,-0.173,-0.318,-0.167,-52.85,134.02,0
1282246.0,0.294,0.29,-0.005,44.66,-90.89,0
1282251.0,-0.288,-0.361,-0.153,-47.9,117.97,0
1282256.0,0.234,0.341,0.113,52.68,-64.25,0
1282261.0,-0.48,-0.359,-0.158,-35.38,108.21,0
1282266.0,0.095,0.324,0.115,65.25,-39.51,0
1282271.0,-0.513,-0.327,-0.103,-32.03,101.32,0
1282276.0,0.265,0.348,0.01,52.67,-87.88,0
1282281.0,-0.372,-0.327,-0.285,-34.96,127.43,0
1282286.0,0.291,0.295,0.019,45.3,-86.19,0
1282291.0,-0.264,-0.337,-0.232,-43.79,131.29,0
1282296.0,0.227,0.446,-0.17,57.58,-126.83,0
1282301.0,-0.3,-0.368,-0.242,-43.7,128.84,0
1282306.0,0.126,0.29,0.01,66.46,-85.55,0
1282311.0,-0.417,-0.359,-0.249,-36.43,120.79,0
1282316.0,0.179,0.477,0.012,69.41,-86.09,0
1282321.0,-0.331,-0.301,-0.019,-42.23,93.27,0
1282326.0,0.176,0.226,0.182,41.66,-44.07,0
1282331.0,-0.269,-0.428,-0.167,-53.49,121.89,0
1282336.0,0.193,0.451,-0.009,66.78,-92.77,0
1282341.0,-0.235,-0.244,0.182,-39.3,52.26,0
1282346.0,0.21,0.197,-0.055,42.23,-104.64,0
1282351.0,-0.374,-0.371,-0.323,-36.85,130.79,0
1282356.0,0.155,0.257,-0.096,54.68,-121.67,0
1282361.0,-0.365,-0.11,-0.304,-13.0,129.8,0
1282366.0,0.042,0.262,0.086,69.8,-26.08,0
1282371.0,-0.243,-0.313,0.065,-51.27,75.03,0
1282376.0,0.09,0.23,-0.038,66.98,-112.89,0
1282381.0,-0.377,-0.114,-0.033,-16.83,95.05,0
1282386.0,0.093,0.417,0.017,77.28,-79.59,0
1282391.0,-0.329,-0.315,-0.151,-41.1,114.61,0
1282396.0,0.164,0.273,-0.249,42.53,-146.54,0
1282401.0,-0.324,-0.363,-0.378,-36.12,139.4,0
1282406.0,0.184,0.247,0.039,52.81,-78.14,0
1282411.0,-0.401,-0.28,-0.39,-26.57,134.23,0
1282416.0,0.033,0.297,-0.153,62.26,-167.93,0
1282421.0,-0.29,-0.076,0.304,-10.25,43.67,0
1282426.0,0.128,0.23,0.278,36.96,-24.81,0
1282431.0,-0.231,-0.368,-0.316,-43.27,143.86,0
1282436.0,0.014,0.348,-0.076,77.42,-169.93,0
1282441.0,-0.089,-0.313,0.331,-42.43,15.13,0
1282446.0,0.138,0.278,0.235,45.61,-30.45,0
1282451.0,-0.235,-0.359,-0.198,-49.35,130.13,0
1282456.0,0.081,0.336,0.067,72.63,-50.15,0
1282461.0,-0.307,-0.045,0.199,-7.0,57.08,0
1282466.0,0.045,0.192,0.165,48.26,-15.12,0
1282471.0,-0.393,-0.375,0.074,-43.15,79.28,0
1282476.0,0.038,0.221,0.146,55.63,-14.38,0
1282481.0,-0.334,-0.347,0.065,-45.56,78.99,0
1282486.0,0.117,0.175,0.144,43.44,-39.0,0
1282491.0,-0.221,-0.066,0.156,-13.81,54.81,0
1282496.0,0.061,0.285,0.192,54.8,-17.77,0
1282501.0,-0.14,-0.172,0.017,-50.69,83.06,0
1282506.0,0.057,0.149,0.082,56.3,-34.76,0
1282511.0,-0.238,-0.258,0.079,-45.83,71.57,0
1282516.0,0.011,0.314,0.182,59.84,-3.51,0
1282521.0,-0.123,-0.224,0.003,-61.3,88.77,0
1282526.0,0.382,0.199,0.017,27.51,-87.45,0
1282531.0,-0.295,-0.282,0.029,-43.54,84.4,0
1282536.0,0.485,0.281,0.359,24.93,-53.48,0
1282541.0,-0.2,-0.196,0.235,-32.43,40.35,0
1282546.0,0.452,0.439,0.218,41.17,-64.23,0
1282551.0,-0.132,-0.459,-0.112,-69.28,130.28,0
1282556.0,0.354,0.293,0.137,37.67,-68.86,0
1282561.0,-0.353,-0.397,-0.045,-48.14,97.31,0
1282566.0,0.401,0.393,0.074,43.92,-79.49,0
1282571.0,-0.353,-0.246,-0.026,-34.82,94.23,0
1282576.0,0.387,0.288,0.12,35.39,-72.78,0
1282581.0,-0.324,-0.272,-0.012,-40.03,92.07,0
1282586.0,0.346,0.405,0.053,49.15,-81.31,0
1282591.0,-0.341,-0.404,-0.155,-47.17,114.51,0
1282596.0,0.368,0.317,0.201,37.05,-61.31,0
1282601.0,-0.355,-0.409,0.051,-48.74,81.9,0
1282606.0,0.468,0.491,0.177,44.45,-69.26,0
1282611.0,-0.317,-0.28,-0.06,-40.93,100.66,0
1282616.0,0.428,0.276,0.096,32.18,-77.35,0
1282621.0,-0.283,-0.387,0.022,-53.73,85.6,0
1282626.0,0.466,0.441,0.182,41.39,-68.65,0
1282631.0,-0.35,-0.354,-0.1,-44.15,105.98,0
1282636.0,0.411,0.374,0.153,40.45,-69.52,0
1282641.0,-0.36,-0.423,0.055,-49.29,81.26,0
1282646.0,0.392,0.403,0.209,42.22,-61.98,0
1282651.0,-0.413,-0.354,-0.182,-38.12,113.77,0
1282656.0,0.361,0.408,0.115,47.11,-72.29,0
1282661.0,-0.355,-0.39,0.019,-47.61,86.87,0
1282666.0,0.37,0.551,0.096,55.24,-75.46,0
1282671.0,-0.257,-0.438,-0.191,-53.79,126.66,0
1282676.0,0.327,0.379,0.051,48.85,-81.22,0
1282681.0,-0.415,-0.445,-0.06,-46.69,98.17,0
1282686.0,0.325,0.424,0.031,52.44,-84.48,0
1282691.0,-0.391,-0.359,-0.191,-39.48,116.07,0
1282696.0,0.337,0.388,0.146,46.61,-66.52,0
1282701.0,-0.384,-0.394,0.022,-45.74,86.75,0
1282706.0,0.428,0.396,0.118,41.73,-74.63,0
1282711.0,-0.3,-0.277,-0.096,-41.35,107.66,0
1282716.0,0.397,0.353,0.089,40.93,-77.38,0
1282721.0,-0.336,-0.383,-0.069,-48.11,101.64,0
1282726.0,0.291,0.362,0.046,50.84,-81.08,0
1282731.0,-0.336,-0.39,-0.189,-45.31,119.35,0
1282736.0,0.351,0.477,0.156,51.15,-66.07,0
1282741.0,-0.362,-0.373,0.017,-45.8,87.31,0
1282746.0,0.325,0.391,0.065,49.72,-78.7,0
1282751.0,-0.372,-0.466,-0.28,-45.05,126.96,0
1282756.0,0.344,0.41,0.118,48.44,-71.13,0
1282761.0,-0.434,-0.445,0.0,-45.69,89.97,0
1282766.0,0.346,0.441,0.103,50.67,-73.41,0
1282771.0,-0.334,-0.375,-0.285,-40.56,130.48,0
1282776.0,0.308,0.374,0.034,50.36,-83.75,0
1282781.0,-0.384,-0.459,-0.122,-48.74,107.61,0
1282786.0,0.361,0.391,0.118,45.85,-71.95,0
1282791.0,-0.298,-0.313,-0.04,-46.18,97.74,0
1282796.0,0.418,0.408,0.115,43.22,-74.6,0
1282801.0,-0.374,-0.399,-0.251,-41.53,123.86,0
1282806.0,0.346,0.264,-0.009,37.3,-91.54,0
1282811.0,-0.384,-0.258,-0.258,-29.15,123.94,0
1282816.0,0.174,0.417,-0.064,66.02,-110.31,0
1282821.0,-0.405,-0.392,-0.196,-41.04,115.81,0
1282826.0,0.2,0.214,0.266,32.68,-36.98,0
1282831.0,-0.326,-0.258,0.082,-37.48,75.96,0
1282836.0,0.313,0.465,0.13,53.94,-67.51,0
1282841.0,-0.444,-0.332,-0.242,-33.33,118.56,0
1282846.0,0.346,0.257,-0.055,36.21,-98.99,0
1282851.0,-0.247,-0.478,-0.239,-54.27,134.03,0
1282856.0,0.37,0.422,0.156,46.4,-67.17,0
1282861.0,-0.171,-0.256,-0.05,-55.15,106.33,0
1282866.0,0.459,0.357,-0.026,37.86,-93.25,0
1282871.0,-0.386,-0.416,-0.359,-38.28,132.9,0
1282876.0,0.176,0.364,0.106,60.58,-59.09,0
1282881.0,-0.37,-0.308,0.007,-39.83,88.85,0
1282886.0,0.059,0.384,-0.093,73.96,-147.62,0
1282891.0,-0.437,-0.428,-0.129,-43.24,106.47,0
1282896.0,0.181,0.405,0.424,41.31,-23.13,0
1282901.0,-0.324,-0.253,-0.167,-34.78,117.32,0
1282906.0,0.284,0.204,-0.524,18.9,-151.54,0
1282911.0,-0.405,-0.265,-0.414,-24.59,135.6,0
1282916.0,0.524,0.472,0.374,36.28,-54.48,0
1282921.0,-0.389,-0.299,-0.096,-36.74,103.81,0
1282926.0,0.117,0.297,-0.38,36.78,-162.97,0
1282931.0,-0.355,-0.277,-0.356,-28.85,135.11,0
1282936.0,0.136,0.405,0.47,39.66,-16.12,0
1282941.0,-0.293,-0.306,0.13,-43.69,66.14,0
1282946.0,0.109,0.24,-0.098,58.55,-131.85,0
1282951.0,-0.434,-0.368,-0.416,-31.47,133.8,0
1282956.0,0.207,0.357,-0.107,56.81,-117.39,0
1282961.0,-0.211,-0.224,-0.258,-33.92,140.69,0
1282966.0,0.16,0.312,0.12,57.37,-53.07,0
1282971.0,-0.271,-0.359,-0.112,-50.68,112.48,0
1282976.0,0.2,0.283,-0.134,49.6,-123.75,0
1282981.0,-0.408,-0.007,0.062,-0.92,81.29,0
1282986.0,0.275,0.309,0.28,38.26,-44.4,0
1282991.0,-0.338,-0.251,0.091,-35.59,74.91,0
1282996.0,0.236,0.393,0.074,57.79,-72.5,0
1283001.0,-0.231,-0.517,-0.337,-51.65,145.64,0
1283006.0,0.131,0.41,0.003,72.29,-88.85,0
1283011.0,-0.233,-0.39,-0.246,-48.97,136.59,0
1283016.0,0.145,0.422,-0.052,69.9,-109.85,0
1283021.0,-0.18,-0.076,0.137,-18.58,52.84,0
1283026.0,0.095,0.297,-0.079,67.47,-129.67,0
1283031.0,-0.326,-0.284,-0.244,-34.91,126.78,0
1283036.0,0.049,0.333,0.18,60.78,-15.39,0
1283041.0,-0.319,-0.406,0.074,-51.11,76.87,0
1283046.0,0.059,0.161,0.074,59.44,-38.42,0
1283051.0,-0.329,-0.205,0.051,-31.69,81.27,0
1283056.0,0.255,0.405,0.094,56.13,-69.87,0
1283061.0,-0.154,-0.112,0.07,-33.52,65.66,0
1283066.0,0.078,0.149,0.041,59.35,-62.37,0
1283071.0,-0.223,-0.306,0.022,-53.72,84.43,0
1283076.0,0.083,0.147,0.132,43.25,-32.18,0
1283081.0,-0.305,-0.179,0.127,-28.45,67.36,0
1283086.0,0.045,0.171,0.261,32.76,-9.71,0
1283091.0,-0.298,-0.064,0.074,-11.8,75.96,0
1283096.0,0.083,0.101,0.031,48.73,-69.3,0
1283101.0,-0.104,-0.117,0.089,-40.53,49.43,0
1283106.0,0.042,0.056,0.23,13.38,-10.42,0
1283111.0,-0.3,-0.129,0.149,-21.03,63.64,0
1283116.0,0.083,0.211,0.223,41.61,-20.42,0
1283121.0,-0.331,-0.246,0.127,-34.74,69.0,0
1283126.0,0.416,0.278,0.149,32.22,-70.32,0
1283131.0,-0.219,-0.217,-0.05,-44.09,102.89,0
1283136.0,0.303,0.254,-0.012,39.96,-92.22,0
1283141.0,-0.302,-0.256,0.039,-39.97,82.74,0
1283146.0,0.265,0.216,0.11,36.97,-67.38,0
1283151.0,-0.274,-0.153,-0.043,-28.86,98.9,0
1283156.0,0.342,0.211,0.137,29.86,-68.19,0
1283161.0,-0.214,-0.371,0.177,-53.13,50.32,0
1283166.0,0.361,0.187,0.185,24.81,-62.9,0
1283171.0,-0.31,-0.134,-0.153,-21.14,116.29,0
1283176.0,0.406,0.348,0.015,40.54,-87.94,0
1283181.0,-0.24,-0.313,0.041,-52.11,80.33,0
1283186.0,0.435,0.23,0.101,27.3,-76.95,0
1283191.0,-0.219,-0.275,0.036,-51.11,80.61,0
1283196.0,0.488,0.448,0.338,37.08,-55.29,0
1283201.0,-0.346,-0.433,0.134,-49.42,68.76,0
1283206.0,0.377,0.357,0.144,41.49,-69.13,0
1283211.0,-0.317,-0.284,-0.048,-41.59,98.55,0
1283216.0,0.303,0.47,0.072,56.44,-76.63,0
1283221.0,-0.116,-0.313,0.086,-65.23,53.24,0
1283226.0,0.373,0.309,0.206,36.0,-61.05,0
1283231.0,-0.101,-0.26,-0.124,-58.38,140.8,0
1283236.0,0.385,0.374,0.019,44.16,-87.11,0
1283241.0,-0.286,-0.26,0.005,-42.34,88.99,0
1283246.0,0.356,0.324,0.244,36.86,-55.52,0
1283251.0,-0.286,-0.366,0.146,-48.73,62.89,0
1283256.0,0.382,0.429,0.106,47.26,-74.56,0
1283261.0,-0.336,-0.385,-0.155,-46.12,114.82,0
1283266.0,0.502,0.331,0.144,32.37,-74.01,0
1283271.0,-0.3,-0.332,0.074,-47.06,76.06,0
1283276.0,0.54,0.331,0.12,30.88,-77.48,0
1283281.0,-0.439,-0.411,-0.189,-40.72,113.29,0
1283286.0,0.512,0.475,0.173,41.32,-71.35,0
1283291.0,-0.398,-0.356,0.0,-41.81,89.97,0
1283296.0,0.239,0.269,0.089,46.54,-69.58,0
1283301.0,-0.195,-0.292,-0.086,-53.87,113.82,0
1283306.0,0.282,0.309,0.249,39.44,-48.5,0
1283311.0,-0.252,-0.292,0.072,-48.02,74.05,0
1283316.0,0.454,0.364,0.12,37.81,-75.2,0
1283321.0,-0.267,-0.351,-0.103,-50.89,111.07,0
1283326.0,0.452,0.386,0.127,39.44,-74.28,0
1283331.0,-0.31,-0.387,-0.151,-48.36,115.94,0
1283336.0,0.404,0.441,0.134,46.03,-71.6,0
1283341.0,-0.415,-0.433,-0.036,-46.1,94.91,0
1283346.0,0.404,0.477,0.158,47.72,-68.6,0
1283351.0,-0.41,-0.397,-0.17,-41.8,112.48,0
1283356.0,0.485,0.384,0.173,36.68,-70.42,0
1283361.0,-0.358,-0.447,-0.005,-51.35,90.73,0
1283366.0,0.406,0.482,0.115,48.77,-74.17,0
1283371.0,-0.154,-0.344,-0.055,-64.59,109.59,0
1283376.0,0.277,0.384,0.163,50.05,-59.51,0
1283381.0,-0.173,-0.383,-0.119,-61.19,124.6,0
1283386.0,0.263,0.367,-0.033,54.19,-97.22,0
1283391.0,-0.336,-0.335,-0.122,-43.12,109.94,0
1283396.0,0.401,0.302,0.165,34.84,-67.6,0
1283401.0,-0.578,-0.404,-0.143,-34.17,103.94,0
1283406.0,0.392,0.463,0.141,48.0,-70.15,0
1283411.0,-0.446,-0.366,-0.117,-38.41,104.7,0
1283416.0,0.308,0.379,0.039,50.67,-82.87,0
1283421.0,-0.405,-0.445,-0.206,-44.37,116.9,0
1283426.0,0.37,0.329,0.125,40.06,-71.38,0
1283431.0,-0.329,-0.26,-0.148,-35.83,114.26,0
1283436.0,0.308,0.348,-0.088,47.34,-106.0,0
1283441.0,-0.137,-0.476,-0.196,-63.3,145.01,0
1283446.0,0.243,0.364,0.146,52.08,-58.99,0
1283451.0,-0.245,-0.337,-0.115,-51.25,115.08,0
1283456.0,0.26,0.355,0.051,53.25,-79.01,0
1283461.0,-0.343,-0.406,-0.052,-49.5,98.69,0
1283466.0,0.251,0.35,0.225,46.1,-48.04,0
1283471.0,-0.305,-0.359,-0.086,-48.54,105.74,0
1283476.0,0.375,0.446,0.062,49.54,-80.54,0
1283481.0,-0.329,-0.368,-0.117,-46.53,109.6,0
1283486.0,0.452,0.295,0.156,31.69,-70.96,0
1283491.0,-0.302,-0.311,-0.17,-41.85,119.3,0
1283496.0,0.279,0.393,0.015,54.57,-87.01,0
1283501.0,-0.451,-0.366,-0.117,-38.14,104.56,0
1283506.0,0.193,0.424,0.086,63.5,-65.89,0
1283511.0,-0.46,-0.485,-0.22,-43.57,115.54,0
1283516.0,0.222,0.475,-0.057,64.23,-104.46,0
1283521.0,-0.362,-0.442,-0.242,-45.45,123.69,0
1283526.0,0.234,0.432,0.101,59.46,-66.68,0
1283531.0,-0.307,-0.308,-0.163,-41.57,117.88,0
1283536.0,0.325,0.415,-0.124,50.02,-110.93,0
1283541.0,-0.358,-0.335,0.168,-40.27,64.85,0
1283546.0,0.176,0.151,0.003,40.64,-89.14,0
1283551.0,-0.41,-0.289,-0.05,-34.98,96.95,0
1283556.0,0.114,0.412,0.015,74.41,-82.71,0
1283561.0,-0.396,-0.366,-0.376,-33.83,133.5,0
1283566.0,0.143,0.295,-0.084,60.71,-120.32,0
1283571.0,-0.31,-0.414,-0.04,-52.95,97.44,0
1283576.0,0.181,0.345,0.106,58.73,-59.77,0
1283581.0,-0.437,0.123,0.029,15.66,86.2,0
1283586.0,0.322,0.252,-0.225,32.66,-124.89,0
1283591.0,-0.365,-0.371,-0.335,-36.81,132.56,0
1283596.0,0.275,0.341,0.156,47.17,-60.41,0
1283601.0,-0.343,-0.399,-0.158,-46.59,114.69,0
1283606.0,0.028,0.439,-0.251,60.06,-173.65,0
1283611.0,-0.348,-0.447,-0.16,-49.42,114.72,0
1283616.0,0.145,0.364,0.232,53.05,-32.0,0
1283621.0,-0.204,0.013,-0.232,2.32,138.63,0
1283626.0,0.188,0.166,-0.237,28.72,-141.5,0
1283631.0,-0.204,-0.311,-0.076,-54.93,110.5,0
1283636.0,0.227,0.355,0.06,56.55,-75.15,0
1283641.0,-0.355,-0.315,-0.143,-39.48,111.99,0
1283646.0,0.179,0.271,0.232,42.75,-37.56,0
1283651.0,-0.456,-0.349,0.266,-33.48,59.73,0
1283656.0,0.112,0.386,0.051,72.38,-65.67,0
1283661.0,-0.118,-0.031,-0.031,-14.06,104.65,0
1283666.0,0.088,0.23,0.213,44.97,-22.37,0
1283671.0,-0.293,-0.236,0.13,-36.44,66.14,0
1283676.0,0.152,0.094,-0.038,30.87,-104.02,0
1283681.0,-0.25,-0.136,0.041,-28.23,80.69,0
1283686.0,0.131,0.173,0.232,32.95,-29.38,0
1283691.0,-0.314,-0.191,0.125,-29.45,68.36,0
1283696.0,0.069,0.166,0.139,46.9,-26.26,0
1283701.0,-0.209,-0.141,0.153,-28.48,53.72,0
1283706.0,-0.003,0.202,0.096,64.53,1.9,0
1283711.0,-0.267,-0.134,-0.012,-26.58,92.52,0
1283716.0,0.162,0.166,0.125,39.03,-52.41,0
1283721.0,-0.324,-0.059,0.055,-10.23,80.31,0
1283726.0,0.404,0.089,0.098,12.11,-76.31,0
1283731.0,-0.183,-0.131,0.01,-35.62,86.93,0
1283736.0,0.308,0.015,0.146,2.51,-64.6,0
1283741.0,-0.214,0.022,0.077,5.56,70.24,0
1283746.0,0.38,0.23,0.149,29.46,-68.63,0
1283751.0,-0.219,-0.189,0.019,-40.66,84.93,0
1283756.0,0.258,0.089,-0.028,18.97,-96.31,0
1283761.0,-0.338,-0.28,-0.098,-38.44,106.14,0
1283766.0,0.399,0.36,0.161,39.9,-68.07,0
1283771.0,-0.348,-0.198,0.039,-29.51,83.68,0
1283776.0,0.392,0.305,0.165,35.61,-67.11,0
1283781.0,-0.216,-0.342,0.07,-56.39,72.14,0
1283786.0,0.476,0.309,0.177,31.36,-69.55,0
1283791.0,-0.185,-0.16,0.074,-38.7,68.09,0
1283796.0,0.394,0.216,0.108,27.86,-74.68,0
1283801.0,-0.171,-0.33,0.079,-60.28,65.11,0
1283806.0,0.385,0.197,0.213,24.11,-60.99,0
1283811.0,-0.073,-0.181,0.221,-38.0,18.23,0
1283816.0,0.373,0.211,0.338,22.78,-47.81,0
1283821.0,-0.226,-0.251,0.058,-47.1,75.67,0
1283826.0,0.483,0.321,0.086,33.23,-79.85,0
1283831.0,-0.274,-0.26,-0.17,-38.95,121.8,0
1283836.0,0.308,0.264,-0.093,39.35,-106.82,0
1283841.0,-0.271,-0.337,-0.146,-47.57,118.25,0
1283846.0,0.239,0.355,0.094,54.16,-68.58,0
1283851.0,-0.334,-0.215,0.036,-32.64,83.81,0
1283856.0,0.366,0.252,0.182,31.67,-63.5,0
1283861.0,-0.468,-0.335,0.067,-35.31,81.81,0
1283866.0,0.332,0.329,0.108,43.26,-71.98,0
1283871.0,-0.238,-0.325,-0.098,-51.65,112.38,0
1283876.0,0.363,0.355,0.096,43.38,-75.19,0
1283881.0,-0.322,-0.392,-0.155,-47.67,115.79,0
1283886.0,0.514,0.443,0.07,40.53,-82.28,0
1283891.0,-0.216,-0.325,0.039,-55.95,79.89,0
1283896.0,0.392,0.321,0.194,36.31,-63.64,0
1283901.0,-0.362,-0.366,-0.045,-45.05,97.12,0
1283906.0,0.363,0.446,0.259,45.0,-54.52,0
1283911.0,-0.31,-0.306,0.043,-44.37,82.03,0
1283916.0,0.32,0.273,0.074,39.77,-76.9,0
1283921.0,-0.384,-0.385,-0.028,-45.0,94.24,0
1283926.0,0.445,0.448,0.273,40.67,-58.43,0
1283931.0,-0.267,-0.304,0.012,-48.68,87.38,0
1283936.0,0.509,0.41,0.086,38.44,-80.37,0
1283941.0,-0.209,-0.459,-0.009,-65.49,92.56,0
1283946.0,0.476,0.417,0.156,39.81,-71.86,0
1283951.0,-0.314,-0.308,-0.139,-41.9,113.79,0
1283956.0,0.332,0.369,0.122,46.22,-69.77,0
1283961.0,-0.41,-0.356,-0.036,-40.86,94.97,0
1283966.0,0.334,0.367,0.01,47.64,-88.32,0
1283971.0,-0.408,-0.359,-0.189,-38.58,114.85,0
1283976.0,0.289,0.415,0.163,51.35,-60.56,0
1283981.0,-0.312,-0.368,-0.043,-49.45,97.82,0
1283986.0,0.459,0.443,0.118,43.11,-75.63,0
1283991.0,-0.355,-0.368,-0.127,-44.32,109.63,0
1283996.0,0.466,0.465,0.182,42.9,-68.65,0
1284001.0,-0.386,-0.548,-0.04,-54.66,95.98,0
1284006.0,0.423,0.47,0.189,45.39,-65.88,0
1284011.0,-0.252,-0.488,-0.017,-62.61,93.75,0
1284016.0,0.425,0.479,0.223,44.95,-62.34,0
1284021.0,-0.307,-0.414,0.062,-52.84,78.5,0
1284026.0,0.461,0.312,0.223,31.33,-64.21,0
1284031.0,-0.226,-0.277,-0.081,-49.11,109.77,0
1284036.0,0.267,0.384,0.031,54.94,-83.31,0
1284041.0,-0.305,-0.43,-0.172,-50.87,119.45,0
1284046.0,0.356,0.386,0.077,46.67,-77.82,0
1284051.0,-0.405,-0.375,-0.139,-41.22,108.88,0
1284056.0,0.313,0.424,0.051,53.25,-80.83,0
1284061.0,-0.358,-0.5,-0.131,-52.69,110.19,0
1284066.0,0.251,0.345,0.07,53.01,-74.46,0
1284071.0,-0.372,-0.332,-0.086,-41.04,103.01,0
1284076.0,0.356,0.436,0.163,48.1,-65.39,0
1284081.0,-0.274,-0.335,-0.081,-49.53,106.51,0
1284086.0,0.279,0.333,0.0,50.04,-89.95,0
1284091.0,-0.29,-0.378,-0.163,-48.61,119.23,0
1284096.0,0.342,0.376,0.221,42.8,-57.16,0
1284101.0,-0.451,-0.299,-0.237,-30.39,117.71,0
1284106.0,0.239,0.326,-0.227,44.71,-133.6,0
1284111.0,-0.401,-0.294,-0.194,-33.45,115.8,0
1284116.0,0.219,0.384,0.209,51.72,-46.46,0
1284121.0,-0.403,-0.361,-0.096,-41.07,103.33,0
1284126.0,0.318,0.453,-0.019,54.92,-93.41,0
1284131.0,-0.437,-0.406,-0.289,-37.81,123.55,0
1284136.0,0.291,0.369,0.084,50.61,-73.91,0
1284141.0,-0.346,-0.342,0.204,-40.43,59.48,0
1284146.0,0.227,0.257,0.022,48.43,-84.51,0
1284151.0,-0.35,-0.256,-0.206,-32.18,120.41,0
1284156.0,0.294,0.317,0.007,47.14,-88.55,0
1284161.0,-0.314,-0.387,-0.17,-47.3,118.36,0
1284166.0,0.327,0.41,0.249,44.91,-52.7,0
1284171.0,-0.446,-0.378,-0.091,-39.68,101.5,0
1284176.0,0.272,0.446,-0.036,58.38,-97.47,0
1284181.0,-0.415,0.197,0.213,22.88,62.79,0
1284186.0,0.181,0.312,0.022,59.66,-83.14,0
1284191.0,-0.343,-0.339,-0.366,-34.08,136.85,0
1284196.0,0.16,0.321,-0.079,61.02,-116.27,0
1284201.0,-0.168,-0.253,-0.05,-55.25,106.55,0
1284206.0,0.186,0.283,0.103,53.08,-60.97,0
1284211.0,-0.223,-0.248,-0.297,-33.78,143.01,0
1284216.0,0.157,0.302,-0.031,62.07,-101.11,0
1284221.0,-0.353,0.008,0.261,1.01,53.48,0
1284226.0,0.2,0.252,0.043,50.87,-77.79,0
1284231.0,-0.37,-0.337,-0.21,-38.4,119.66,0
1284236.0,0.179,0.412,-0.048,65.84,-104.92,0
1284241.0,-0.283,-0.308,0.084,-46.21,73.48,0
1284246.0,0.2,0.214,0.118,42.61,-59.59,0
1284251.0,-0.346,-0.304,0.022,-41.24,86.39,0
1284256.0,0.073,0.374,0.094,72.36,-38.11,0
1284261.0,-0.046,0.032,0.218,8.09,11.98,0
1284266.0,0.152,0.29,0.194,49.62,-38.13,0
1284271.0,-0.288,-0.349,-0.04,-50.18,97.99,0
1284276.0,0.169,-0.002,-0.038,-0.61,-102.68,0
1284281.0,-0.228,0.032,0.086,7.4,69.26,0
1284286.0,0.117,0.065,0.168,17.7,-34.77,0
1284291.0,-0.305,-0.131,0.065,-22.82,77.98,0
1284296.0,0.128,-0.019,0.082,-6.96,-57.57,0
1284301.0,-0.192,0.046,0.041,13.18,77.98,0
1284306.0,0.114,0.147,0.101,43.92,-48.55,0
1284311.0,-0.348,-0.138,0.232,-18.29,56.25,0
1284316.0,0.401,-0.031,0.118,-4.18,-73.68,0
1284321.0,-0.142,-0.064,-0.06,-22.59,112.77,0
1284326.0,0.449,0.197,0.173,22.25,-68.98,0
1284331.0,-0.073,-0.074,0.371,-11.02,11.07,0
1284336.0,0.382,0.08,0.319,9.08,-50.18,0
1284341.0,-0.223,-0.22,-0.019,-44.41,94.84,0
1284346.0,0.346,0.161,0.017,24.9,-87.19,0
1284351.0,-0.274,-0.057,0.153,-10.28,60.72,0
1284356.0,0.275,0.226,0.163,35.24,-59.29,0
1284361.0,-0.228,-0.308,-0.129,-49.62,119.48,0
1284366.0,0.461,0.151,0.022,18.15,-87.3,0
1284371.0,-0.204,-0.198,0.06,-42.94,73.61,0
1284376.0,0.392,0.211,0.23,24.93,-59.58,0
1284381.0,-0.166,-0.196,0.13,-42.92,52.04,0
1284386.0,0.334,0.264,0.201,34.06,-58.95,0
1284391.0,-0.207,-0.081,0.17,-16.8,50.53,0
1284396.0,0.354,0.197,0.192,26.08,-61.52,0
1284401.0,-0.401,-0.268,-0.021,-33.7,93.04,0
1284406.0,0.351,0.192,0.077,28.12,-77.65,0
1284411.0,-0.183,-0.157,0.089,-37.77,64.08,0
1284416.0,0.404,0.262,0.084,32.38,-78.24,0
1284421.0,-0.216,-0.227,0.01,-46.34,87.4,0
1284426.0,0.373,0.185,0.132,25.07,-70.51,0
1284431.0,-0.202,-0.201,0.07,-43.2,70.96,0
1284436.0,0.279,0.331,0.005,49.83,-88.97,0
1284441.0,-0.317,-0.373,-0.17,-46.06,118.18,0
1284446.0,0.404,0.269,0.211,30.53,-62.42,0
1284451.0,-0.267,-0.198,0.23,-29.37,49.2,0
1284456.0,0.43,0.312,0.13,34.76,-73.24,0
1284461.0,-0.346,-0.373,-0.098,-46.08,105.82,0
1284466.0,0.507,0.341,0.216,31.73,-66.94,0
1284471.0,-0.216,-0.27,0.015,-51.24,86.14,0
1284476.0,0.349,0.271,0.017,37.83,-87.21,0
1284481.0,-0.269,-0.359,-0.043,-52.78,99.05,0
1284486.0,0.404,0.319,0.369,30.25,-47.58,0
1284491.0,-0.223,-0.296,0.163,-46.97,53.88,0
1284496.0,0.397,0.487,0.082,50.23,-78.37,0
1284501.0,-0.348,-0.418,0.036,-50.1,84.07,0
1284506.0,0.459,0.432,0.29,38.48,-57.71,0
1284511.0,-0.223,-0.385,0.039,-59.5,80.21,0
1284516.0,0.303,0.384,0.029,51.55,-84.54,0
1284521.0,-0.19,-0.351,0.019,-61.48,84.17,0
1284526.0,0.512,0.309,0.273,28.08,-61.9,0
1284531.0,-0.334,-0.356,-0.134,-44.74,111.86,0
1284536.0,0.351,0.333,0.062,43.06,-79.91,0
1284541.0,-0.362,-0.244,-0.043,-33.74,96.75,0
1284546.0,0.334,0.257,0.007,37.51,-88.73,0
1284551.0,-0.398,-0.27,-0.201,-31.19,116.77,0
1284556.0,0.322,0.297,0.192,38.41,-59.26,0
1284561.0,-0.346,-0.385,0.041,-47.88,83.24,0
1284566.0,0.342,0.412,0.12,48.72,-70.65,0
1284571.0,-0.331,-0.366,-0.119,-46.09,109.84,0
1284576.0,0.409,0.436,0.146,45.15,-70.3,0
1284581.0,-0.279,-0.344,-0.131,-48.18,115.26,0
1284586.0,0.433,0.329,0.098,36.53,-77.18,0
1284591.0,-0.293,-0.385,-0.124,-50.42,112.99,0
1284596.0,0.308,0.348,0.089,47.32,-73.92,0
1284601.0,-0.346,-0.277,-0.067,-38.22,100.94,0
1284606.0,0.258,0.429,0.156,54.93,-58.84,0
1284611.0,-0.511,-0.383,-0.198,-34.92,111.24,0
1284616.0,0.26,0.353,0.003,53.57,-89.42,0
1284621.0,-0.374,-0.483,-0.124,-50.77,108.37,0
1284626.0,0.332,0.494,0.139,53.91,-67.27,0
1284631.0,-0.216,-0.311,-0.131,-50.83,121.29,0
1284636.0,0.447,0.317,0.005,35.31,-89.36,0
1284641.0,-0.257,-0.354,-0.064,-53.17,104.07,0
1284646.0,0.315,0.309,0.211,39.21,-56.21,0
1284651.0,-0.298,-0.251,-0.005,-40.12,90.88,0
1284656.0,0.339,0.391,0.125,47.24,-69.81,0
1284661.0,-0.379,-0.383,-0.06,-44.91,98.94,0
1284666.0,0.354,0.364,0.108,44.6,-73.02,0
1284671.0,-0.386,-0.359,-0.227,-38.66,120.46,0
1284676.0,0.392,0.405,0.089,45.24,-77.23,0
1284681.0,-0.331,-0.485,-0.024,-55.63,94.09,0
1284686.0,0.339,0.455,0.146,50.96,-66.67,0
1284691.0,-0.365,-0.423,-0.23,-44.48,122.19,0
1284696.0,0.301,0.472,0.062,56.95,-78.27,0
1284701.0,-0.439,-0.438,-0.096,-44.25,102.28,0
1284706.0,0.255,0.415,0.041,58.05,-80.89,0
1284711.0,-0.247,-0.454,-0.16,-57.03,122.92,0
1284716.0,0.253,0.487,0.07,61.66,-74.6,0
1284721.0,-0.314,-0.33,-0.072,-45.65,102.83,0
1284726.0,0.32,0.278,-0.021,40.95,-93.81,0
1284731.0,-0.381,-0.356,-0.242,-38.27,122.34,0
1284736.0,0.497,0.379,0.211,35.05,-67.01,0
1284741.0,-0.434,-0.387,-0.052,-41.53,96.89,0
1284746.0,0.26,0.384,-0.093,54.23,-109.7,0
1284751.0,-0.358,-0.38,-0.141,-44.68,111.53,0
1284756.0,0.224,0.388,0.151,55.16,-56.03,0
1284761.0,-0.429,-0.361,-0.285,-35.02,123.54,0
1284766.0,0.351,0.41,0.027,49.34,-85.67,0
1284771.0,-0.288,-0.428,-0.163,-52.3,119.43,0
1284776.0,0.282,0.408,0.036,55.13,-82.69,0
1284781.0,-0.372,-0.387,0.055,-45.85,81.54,0
1284786.0,0.296,0.439,0.074,55.16,-75.88,0
1284791.0,-0.367,-0.411,-0.127,-46.64,109.03,0
1284796.0,0.126,0.355,-0.069,67.94,-118.75,0
1284801.0,-0.408,-0.402,-0.172,-42.22,112.89,0
1284806.0,0.164,0.391,0.151,60.26,-47.42,0
1284811.0,-0.389,-0.327,-0.234,-35.81,121.09,0
1284816.0,0.251,0.496,-0.093,61.68,-110.39,0
1284821.0,-0.415,0.25,0.223,27.91,61.76,0
1284826.0,0.373,0.348,0.17,40.32,-65.45,0
1284831.0,-0.501,-0.344,0.012,-34.47,88.6,0
1284836.0,0.145,0.329,0.24,49.54,-31.22,0
1284841.0,-0.396,-0.277,0.35,-27.69,48.53,0
1284846.0,0.002,0.297,0.115,68.83,-0.79,0
1284851.0,-0.367,-0.366,0.046,-44.67,82.9,0
1284856.0,0.145,0.374,0.036,68.19,-76.02,0
1284861.0,-0.092,0.025,0.096,10.45,43.71,0
1284866.0,0.246,0.283,0.024,48.89,-84.38,0
1284871.0,-0.279,-0.33,0.098,-48.15,70.54,0
1284876.0,0.193,-0.019,0.141,-4.44,-53.77,0
1284881.0,-0.267,0.02,0.072,4.08,74.87,0
1284886.0,0.088,-0.074,0.027,-38.77,-73.16,0
1284891.0,-0.374,-0.052,0.106,-7.63,74.25,0
1284896.0,0.198,-0.05,0.175,-10.66,-48.51,0
1284901.0,-0.219,0.027,0.077,6.62,70.64,0
1284906.0,0.16,0.051,0.058,16.67,-70.12,0
1284911.0,-0.329,0.044,0.132,7.02,68.14,0
1284916.0,0.325,0.063,0.108,10.4,-71.61,0
1284921.0,-0.168,-0.071,-0.04,-22.37,103.51,0
1284926.0,0.315,-0.045,0.012,-8.11,-87.78,0
1284931.0,-0.156,0.048,0.074,15.62,64.54,0
1284936.0,0.349,0.013,0.13,1.93,-69.63,0
1284941.0,-0.183,-0.035,0.256,-6.41,35.48,0
1284946.0,0.31,0.084,0.228,12.36,-53.74,0
1284951.0,-0.08,-0.126,0.106,-43.67,37.08,0
1284956.0,0.212,0.053,0.089,13.02,-67.29,0
1284961.0,-0.156,-0.031,0.185,-7.2,40.28,0
1284966.0,0.521,0.269,0.249,24.95,-64.44,0
1284971.0,-0.092,-0.232,0.062,-64.39,55.75,0
1284976.0,0.399,0.046,-0.021,6.57,-93.06,0
1284981.0,-0.161,-0.141,0.067,-38.85,67.35,0
1284986.0,0.332,0.149,0.223,20.44,-56.12,0
1284991.0,-0.25,0.082,0.089,17.18,70.42,0
1284996.0,0.313,0.089,0.091,15.3,-73.74,0
1285001.0,-0.2,-0.177,0.058,-40.38,73.87,0
1285006.0,0.334,0.084,0.158,12.84,-64.67,0
1285011.0,-0.171,-0.129,0.031,-36.55,79.59,0
1285016.0,0.313,0.209,0.072,33.05,-77.03,0
1285021.0,-0.274,-0.248,0.007,-42.22,88.45,0
1285026.0,0.346,0.23,-0.024,33.57,-93.91,0
1285031.0,-0.276,-0.165,-0.141,-27.97,117.05,0
1285036.0,0.325,0.216,0.051,33.31,-81.16,0
1285041.0,-0.231,-0.227,0.189,-37.24,50.61,0
1285046.0,0.38,0.24,0.24,28.11,-57.75,0
1285051.0,-0.262,-0.174,0.012,-33.62,87.33,0
1285056.0,0.361,0.166,0.106,23.8,-73.69,0
1285061.0,-0.255,-0.268,-0.024,-46.3,95.32,0
1285066.0,0.43,0.264,0.034,31.45,-85.51,0
1285071.0,-0.209,-0.227,0.089,-44.96,66.98,0
1285076.0,0.433,0.302,0.24,31.43,-61.01,0
1285081.0,-0.197,-0.27,0.034,-53.47,80.28,0
1285086.0,0.358,0.269,0.113,35.58,-72.53,0
1285091.0,-0.211,-0.227,0.094,-44.45,66.12,0
1285096.0,0.387,0.247,0.182,30.02,-64.79,0
1285101.0,-0.29,-0.265,0.005,-42.39,89.01,0
1285106.0,0.399,0.257,0.039,32.64,-84.48,0
1285111.0,-0.295,-0.304,-0.005,-45.78,90.88,0
1285116.0,0.349,0.331,0.161,40.76,-65.27,0
1285121.0,-0.389,-0.339,-0.134,-39.55,109.0,0
1285126.0,0.361,0.364,0.027,45.22,-85.79,0
1285131.0,-0.324,-0.268,0.048,-39.25,81.55,0
1285136.0,0.363,0.302,0.256,34.21,-54.77,0
1285141.0,-0.288,-0.33,0.046,-48.51,80.98,0
1285146.0,0.406,0.408,0.201,41.95,-63.63,0
1285151.0,-0.211,-0.205,0.089,-41.83,67.22,0
1285156.0,0.354,0.271,0.137,35.57,-68.86,0
1285161.0,-0.372,-0.423,-0.22,-44.4,120.61,0
1285166.0,0.423,0.336,0.065,38.12,-81.28,0
1285171.0,-0.262,-0.301,0.055,-48.38,78.07,0
1285176.0,0.416,0.35,0.127,38.84,-73.0,0
1285181.0,-0.31,-0.335,-0.06,-46.7,100.9,0
1285186.0,0.337,0.357,0.165,43.6,-63.84,0
1285191.0,-0.312,-0.296,0.007,-43.51,88.64,0
1285196.0,0.394,0.4,0.13,43.98,-71.81,0
1285201.0,-0.434,-0.514,-0.206,-46.95,115.35,0
1285206.0,0.504,0.379,0.199,34.94,-68.47,0
1285211.0,-0.293,-0.296,0.079,-44.32,74.86,0
1285216.0,0.358,0.47,-0.009,52.66,-91.49,0
1285221.0,-0.279,-0.337,-0.208,-44.11,126.76,0
1285226.0,0.33,0.353,0.173,43.45,-62.36,0
1285231.0,-0.355,-0.308,-0.024,-40.9,93.82,0
1285236.0,0.272,0.288,0.062,45.87,-77.07,0
1285241.0,-0.326,-0.361,-0.007,-47.87,91.22,0
1285246.0,0.31,0.42,0.206,48.39,-56.42,0
1285251.0,-0.36,-0.356,-0.119,-43.2,108.36,0
1285256.0,0.344,0.443,-0.012,52.19,-91.95,0
1285261.0,-0.42,-0.315,-0.222,-33.59,117.92,0
1285266.0,0.385,0.472,0.06,50.5,-81.12,0
1285271.0,-0.439,-0.438,-0.134,-43.64,106.96,0
1285276.0,0.334,0.42,0.13,49.48,-68.83,0
1285281.0,-0.446,-0.469,-0.167,-44.53,110.56,0
1285286.0,0.322,0.499,0.074,56.43,-77.0,0
1285291.0,-0.329,-0.28,-0.139,-38.08,112.86,0
1285296.0,0.392,0.276,0.149,33.36,-69.22,0
1285301.0,-0.281,-0.423,-0.055,-55.93,101.04,0
1285306.0,0.33,0.412,0.101,50.11,-73.0,0
1285311.0,-0.247,-0.337,-0.148,-49.45,120.92,0
1285316.0,0.361,0.343,0.163,40.9,-65.68,0
1285321.0,-0.355,-0.464,-0.048,-52.32,97.64,0
1285326.0,0.425,0.455,0.158,45.1,-69.59,0
1285331.0,-0.539,-0.428,-0.17,-37.12,107.47,0
1285336.0,0.356,0.487,0.084,53.07,-76.72,0
1285341.0,-0.31,-0.404,0.156,-49.37,63.28,0
1285346.0,0.265,0.448,0.007,59.4,-88.4,0
1285351.0,-0.355,-0.399,-0.395,-36.94,138.03,0
1285356.0,0.31,0.376,0.086,49.44,-74.44,0
1285361.0,-0.31,-0.438,0.094,-53.53,73.18,0
1285366.0,0.327,0.369,0.022,48.39,-86.19,0
1285371.0,-0.379,-0.383,-0.309,-38.04,129.15,0
1285376.0,0.284,0.403,0.223,48.12,-51.88,0
1285381.0,-0.245,0.206,0.053,39.48,77.81,0
1285386.0,0.243,0.376,0.041,56.75,-80.45,0
1285391.0,-0.398,-0.287,-0.256,-31.2,122.73,0
1285396.0,0.349,0.393,0.113,47.01,-72.08,0
1285401.0,-0.393,-0.469,-0.172,-47.5,113.63,0
1285406.0,0.193,0.338,-0.237,47.9,-140.8,0
1285411.0,-0.405,-0.359,-0.282,-35.97,124.85,0
1285416.0,0.363,0.542,0.307,48.73,-49.81,0
1285421.0,-0.125,0.216,0.003,59.88,88.8,0
1285426.0,0.176,0.278,-0.191,46.92,-137.32,0
1285431.0,-0.425,-0.383,0.156,-40.22,69.84,0
1285436.0,0.251,0.417,0.311,46.22,-38.82,0
1285441.0,-0.343,-0.299,0.06,-40.61,80.07,0
1285446.0,0.184,0.295,-0.16,50.45,-131.11,0
1285451.0,-0.341,-0.495,0.118,-53.94,70.97,0
1285456.0,0.327,0.439,0.161,50.28,-63.85,0
1285461.0,-0.104,0.063,0.003,31.18,88.55,0
1285466.0,0.198,0.391,-0.055,62.28,-105.48,0
1285471.0,-0.341,0.104,0.139,15.71,67.79,0
1285476.0,0.169,-0.023,0.177,-5.45,-43.64,0
1285481.0,-0.42,0.156,0.158,19.19,69.34,0
1285486.0,0.243,-0.083,0.019,-18.82,-85.44,0
1285491.0,-0.36,0.082,-0.024,12.8,93.77,0
1285496.0,0.095,-0.131,0.058,-49.72,-58.72,0
1285501.0,-0.097,0.194,0.153,47.01,32.18,0
1285506.0,0.152,-0.11,0.082,-32.36,-61.83,0
1285511.0,-0.41,-0.011,0.115,-1.53,74.32,0
1285516.0,0.212,-0.066,0.103,-15.73,-64.08,0
1285521.0,-0.094,-0.031,0.132,-10.68,35.52,0
1285526.0,0.255,0.082,0.039,17.61,-81.42,0
1285531.0,-0.142,0.008,0.115,2.42,50.97,0
1285536.0,0.313,0.048,0.153,7.91,-63.87,0
1285541.0,-0.183,-0.033,0.132,-8.32,54.18,0
1285546.0,0.368,0.084,0.132,12.18,-70.27,0
1285551.0,-0.123,-0.035,0.06,-14.49,63.94,0
1285556.0,0.279,-0.088,0.043,-17.3,-81.18,0
1285561.0,-0.159,-0.052,0.077,-16.46,64.18,0
1285566.0,0.31,0.051,0.232,7.47,-53.17,0
1285571.0,-0.123,-0.071,0.177,-18.27,34.71,0
1285576.0,0.248,0.104,0.094,21.32,-69.33,0
1285581.0,-0.19,0.017,0.051,5.04,75.11,0
1285586.0,0.342,0.139,0.177,19.91,-62.55,0
1285591.0,-0.176,-0.112,0.029,-32.18,80.63,0
1285596.0,0.366,0.025,0.077,3.75,-78.13,0
1285601.0,-0.058,-0.035,0.333,-5.97,9.92,0
1285606.0,0.471,0.12,0.276,12.43,-59.66,0
1285611.0,-0.211,-0.057,-0.033,-14.88,98.94,0
1285616.0,0.32,0.039,0.022,6.91,-86.11,0
1285621.0,-0.188,-0.093,0.118,-22.75,57.92,0
1285626.0,0.306,0.166,0.161,25.64,-62.27,0
1285631.0,-0.18,-0.177,0.053,-43.22,73.65,0
1285636.0,0.32,-0.002,0.127,-0.31,-68.33,0
1285641.0,-0.183,-0.177,0.206,-32.66,41.56,0
1285646.0,0.394,0.338,0.259,35.64,-56.72,0
1285651.0,-0.226,-0.27,-0.05,-49.41,102.49,0
1285656.0,0.366,0.257,0.012,35.07,-88.09,0
1285661.0,-0.192,-0.215,0.072,-46.3,69.46,0
1285666.0,0.38,0.163,0.094,22.66,-76.16,0
1285671.0,-0.358,-0.217,-0.036,-31.17,95.7,0
1285676.0,0.332,0.132,0.125,20.45,-69.41,0
1285681.0,-0.312,-0.172,0.031,-28.72,84.26,0
1285686.0,0.308,0.341,0.027,47.76,-85.07,0
1285691.0,-0.195,-0.232,0.058,-48.76,73.49,0
1285696.0,0.366,0.281,0.244,32.55,-56.23,0
1285701.0,-0.281,-0.335,0.029,-49.84,84.11,0
1285706.0,0.404,0.317,0.11,37.1,-74.71,0
1285711.0,-0.238,-0.258,-0.031,-47.09,97.4,0
1285716.0,0.375,0.273,0.055,35.8,-81.61,0
1285721.0,-0.214,-0.32,-0.019,-56.16,95.05,0
1285726.0,0.366,0.305,0.18,36.79,-63.81,0
1285731.0,-0.262,-0.222,0.029,-40.14,83.68,0
1285736.0,0.346,0.276,0.029,38.44,-85.22,0
1285741.0,-0.405,-0.268,-0.009,-33.42,91.32,0
1285746.0,0.377,0.266,0.122,33.87,-72.04,0
1285751.0,-0.35,-0.315,-0.079,-41.3,102.67,0
1285756.0,0.325,0.355,0.122,45.64,-69.36,0
1285761.0,-0.267,-0.308,-0.014,-49.11,93.03,0
1285766.0,0.315,0.3,-0.017,43.53,-93.0,0
1285771.0,-0.274,-0.268,-0.048,-43.92,99.87,0
1285776.0,0.435,0.333,0.242,33.81,-60.9,0
1285781.0,-0.422,-0.248,-0.005,-30.47,90.62,0
1285786.0,0.425,0.297,0.067,34.63,-81.01,0
1285791.0,-0.279,-0.44,0.01,-57.65,87.98,0
1285796.0,0.308,0.46,0.204,51.25,-56.52,0
1285801.0,-0.365,-0.351,0.003,-43.93,89.59,0
1285806.0,0.488,0.381,0.158,36.64,-72.02,0
1285811.0,-0.255,-0.253,-0.05,-44.3,101.12,0
1285816.0,0.373,0.235,0.051,32.02,-82.28,0
1285821.0,-0.211,-0.335,-0.031,-57.43,98.31,0
1285826.0,0.471,0.336,0.177,33.71,-69.35,0
1285831.0,-0.341,-0.272,-0.064,-38.15,100.7,0
1285836.0,0.349,0.417,0.134,48.14,-68.94,0
1285841.0,-0.398,-0.411,0.051,-45.69,82.77,0
1285846.0,0.31,0.393,0.175,47.81,-60.59,0
1285851.0,-0.259,-0.387,-0.024,-56.08,95.22,0
1285856.0,0.394,0.494,0.149,49.52,-69.34,0
1285861.0,-0.322,-0.387,-0.064,-49.74,101.32,0
1285866.0,0.54,0.391,0.165,34.67,-72.98,0
1285871.0,-0.223,-0.363,-0.064,-57.38,106.08,0
1285876.0,0.464,0.398,0.182,38.62,-68.55,0
1285881.0,-0.358,-0.344,-0.131,-42.1,110.19,0
1285886.0,0.421,0.345,0.144,37.84,-71.11,0
1285891.0,-0.35,-0.265,-0.05,-36.85,98.13,0
1285896.0,0.181,0.336,0.027,61.39,-81.65,0
1285901.0,-0.338,-0.392,-0.129,-47.27,110.88,0
1285906.0,0.265,0.422,0.108,55.86,-67.83,0
1285911.0,-0.319,-0.368,-0.045,-48.79,98.07,0
1285916.0,0.456,0.398,0.005,41.08,-89.37,0
1285921.0,-0.346,-0.397,-0.151,-46.48,113.55,0
1285926.0,0.466,0.441,0.216,40.66,-65.16,0
1285931.0,-0.355,-0.404,-0.103,-47.54,106.13,0
1285936.0,0.26,0.381,-0.05,55.2,-100.89,0
1285941.0,-0.379,-0.323,0.218,-36.42,60.09,0
1285946.0,0.267,0.386,0.094,53.73,-70.7,0
1285951.0,-0.341,-0.327,-0.165,-40.86,115.83,0
1285956.0,0.275,0.3,0.046,47.13,-80.54,0
1285961.0,-0.367,-0.435,-0.057,-49.51,98.86,0
1285966.0,0.334,0.379,0.12,46.84,-70.27,0
1285971.0,-0.386,-0.315,-0.237,-34.85,121.51,0
1285976.0,0.284,0.451,0.005,57.77,-88.99,0
1285981.0,-0.283,0.333,0.177,44.92,57.95,0
1285986.0,0.301,0.381,0.13,49.33,-66.71,0
1285991.0,-0.408,-0.404,-0.306,-38.39,126.9,0
1285996.0,0.397,0.429,-0.005,47.25,-90.66,0
1286001.0,-0.343,-0.308,0.012,-41.92,87.96,0
1286006.0,0.207,0.228,-0.005,47.69,-91.26,0
1286011.0,-0.444,-0.335,-0.409,-29.0,132.68,0
1286016.0,0.205,0.345,0.0,59.29,-89.93,0
1286021.0,-0.396,0.077,0.259,9.27,56.82,0
1286026.0,0.239,0.353,-0.021,55.8,-95.1,0
1286031.0,-0.441,-0.39,0.091,-40.85,78.32,0
1286036.0,0.358,0.429,0.017,50.11,-87.28,0
1286041.0,-0.384,-0.5,0.058,-52.17,81.45,0
1286046.0,0.231,0.338,0.034,55.33,-81.7,0
1286051.0,-0.331,-0.251,0.103,-35.87,72.69,0
1286056.0,0.32,0.455,-0.074,54.2,-103.02,0
1286061.0,-0.156,0.075,0.01,25.51,86.41,0
1286066.0,0.229,-0.026,0.173,-5.14,-53.0,0
1286071.0,-0.405,0.175,0.079,23.0,78.94,0
1286076.0,0.184,-0.071,-0.067,-20.04,-110.0,0
1286081.0,-0.487,-0.028,0.113,-3.23,76.96,0
1286086.0,0.203,-0.16,0.323,-22.72,-32.08,0
1286091.0,-0.365,0.166,0.23,21.03,57.75,0
1286096.0,0.107,-0.083,-0.129,-26.41,-140.35,0
1286101.0,-0.034,0.108,0.024,68.81,54.83,0
1286106.0,0.251,-0.1,0.209,-17.05,-50.23,0
1286111.0,-0.077,0.036,0.091,16.95,40.32,0
1286116.0,0.26,0.036,-0.007,7.98,-91.53,0
1286121.0,-0.027,0.068,0.264,14.31,5.88,0
1286126.0,0.303,-0.038,0.163,-6.26,-61.74,0
1286131.0,-0.223,0.015,-0.201,2.84,131.95,0
1286136.0,0.32,-0.105,0.058,-17.86,-79.78,0
1286141.0,-0.099,0.127,0.436,15.91,12.79,0
1286146.0,0.284,-0.011,0.139,-2.07,-63.91,0
1286151.0,-0.142,-0.05,-0.072,-17.36,116.74,0
1286156.0,0.255,-0.047,0.194,-8.39,-52.75,0
1286161.0,-0.101,0.039,0.264,7.84,21.03,0
1286166.0,0.277,0.008,-0.172,1.36,-121.87,0
1286171.0,-0.161,0.005,-0.105,1.59,123.1,0
1286176.0,0.334,-0.016,0.319,-2.01,-46.38,0
1286181.0,-0.152,0.065,0.127,18.24,50.02,0
1286186.0,0.255,-0.033,-0.172,-6.11,-123.98,0
1286191.0,-0.233,-0.019,-0.086,-4.28,110.25,0
1286196.0,0.303,0.015,0.194,2.37,-57.37,0
1286201.0,-0.235,-0.066,0.18,-12.65,52.63,0
1286206.0,0.325,0.173,0.122,26.49,-69.36,0
1286211.0,-0.2,-0.232,0.012,-49.21,86.5,0
1286216.0,0.289,0.135,0.046,24.72,-81.01,0
1286221.0,-0.231,-0.107,0.051,-24.42,77.65,0
1286226.0,0.516,0.221,0.321,19.96,-58.13,0
1286231.0,-0.147,-0.004,0.072,-1.48,63.86,0
1286236.0,0.272,0.005,-0.088,1.07,-107.99,0
1286241.0,-0.178,-0.217,0.012,-50.62,86.07,0
1286246.0,0.301,0.06,0.204,9.44,-55.89,0
1286251.0,-0.283,-0.143,-0.1,-25.46,109.5,0
1286256.0,0.354,0.087,0.053,13.64,-81.49,0
1286261.0,-0.259,-0.04,0.23,-6.6,48.42,0
1286266.0,0.44,0.199,0.225,21.97,-62.87,0
1286271.0,-0.183,-0.141,-0.012,-37.53,93.67,0
1286276.0,0.349,0.163,0.139,23.51,-68.26,0
1286281.0,-0.154,-0.222,0.187,-42.51,39.48,0
1286286.0,0.447,0.211,0.204,23.27,-65.49,0
1286291.0,-0.267,-0.275,0.029,-45.7,83.8,0
1286296.0,0.38,0.171,0.091,23.58,-76.5,0
1286301.0,-0.243,-0.15,0.036,-31.49,81.52,0
1286306.0,0.342,0.309,0.144,39.85,-67.16,0
1286311.0,-0.202,-0.244,0.019,-50.22,84.51,0
1286316.0,0.409,0.206,0.189,24.63,-65.13,0
1286321.0,-0.204,-0.196,0.139,-38.38,55.75,0
1286326.0,0.538,0.376,0.297,31.49,-61.08,0
1286331.0,-0.164,-0.277,0.079,-56.74,64.15,0
1286336.0,0.418,0.254,0.182,29.14,-66.46,0
1286341.0,-0.281,-0.277,0.034,-44.41,83.15,0
1286346.0,0.308,0.35,0.144,45.84,-64.96,0
1286351.0,-0.252,-0.22,-0.026,-40.91,95.91,0
1286356.0,0.227,0.333,0.017,55.71,-85.71,0
1286361.0,-0.302,-0.244,-0.038,-38.63,97.17,0
1286366.0,0.186,0.355,-0.036,61.92,-100.86,0
1286371.0,-0.317,-0.232,-0.182,-32.39,119.84,0
1286376.0,0.404,0.199,0.113,25.42,-74.4,0
1286381.0,-0.377,-0.318,-0.026,-40.09,93.96,0
1286386.0,0.459,0.353,0.043,37.41,-84.61,0
1286391.0,-0.358,-0.27,-0.019,-37.02,93.03,0
1286396.0,0.356,0.278,0.209,34.0,-59.63,0
1286401.0,-0.358,-0.347,-0.031,-44.0,94.94,0
1286406.0,0.344,0.333,0.077,43.41,-77.4,0
1286411.0,-0.312,-0.155,-0.005,-26.42,90.84,0
1286416.0,0.406,0.281,0.091,33.99,-77.34,0
1286421.0,-0.259,-0.239,-0.052,-42.07,101.43,0
1286426.0,0.325,0.326,0.079,44.29,-76.29,0
1286431.0,-0.185,-0.301,-0.076,-56.37,112.42,0
1286436.0,0.318,0.408,0.089,51.02,-74.38,0
1286441.0,-0.398,-0.39,-0.021,-44.34,93.06,0
1286446.0,0.318,0.345,0.182,43.32,-60.16,0
1286451.0,-0.398,-0.332,0.024,-39.79,86.53,0
1286456.0,0.423,0.396,0.13,41.81,-72.97,0
1286461.0,-0.427,-0.512,-0.184,-47.74,113.33,0
1286466.0,0.375,0.499,0.031,52.95,-85.22,0
1286471.0,-0.164,-0.28,0.012,-59.59,85.73,0
1286476.0,0.44,0.295,0.141,32.57,-72.16,0
1286481.0,-0.367,-0.306,-0.045,-39.59,97.03,0
1286486.0,0.279,0.192,0.051,34.09,-79.75,0
1286491.0,-0.494,-0.179,-0.189,-18.7,110.93,0
1286496.0,0.246,0.171,0.029,34.57,-83.28,0
1286501.0,-0.396,-0.227,0.031,-29.74,85.47,0
1286506.0,0.401,0.348,0.18,38.33,-65.87,0
1286511.0,-0.267,-0.397,-0.208,-49.57,127.97,0
1286516.0,0.473,0.439,0.209,40.31,-66.22,0
1286521.0,-0.279,-0.359,-0.012,-52.14,92.41,0
1286526.0,0.452,0.424,-0.096,42.59,-101.94,0
1286531.0,-0.346,-0.44,-0.287,-44.4,129.72,0
1286536.0,0.222,0.432,0.165,57.33,-53.29,0
1286541.0,-0.52,-0.459,0.106,-40.85,78.53,0
1286546.0,0.282,0.479,0.084,58.48,-73.39,0
1286551.0,-0.489,-0.375,-0.064,-37.26,97.5,0
1286556.0,0.325,0.451,0.216,49.13,-56.41,0
1286561.0,-0.295,-0.361,-0.043,-50.42,98.26,0
1286566.0,0.392,0.276,0.015,35.13,-87.87,0
1286571.0,-0.204,-0.284,-0.256,-40.97,141.4,0
1286576.0,0.435,0.331,-0.017,37.25,-92.17,0
1286581.0,-0.331,0.264,0.24,32.85,54.11,0
1286586.0,0.366,0.384,0.28,39.79,-52.51,0
1286591.0,-0.338,-0.387,-0.21,-44.18,121.88,0
1286596.0,0.186,0.364,-0.081,60.9,-113.58,0
1286601.0,-0.355,-0.39,-0.057,-47.29,99.15,0
1286606.0,0.26,0.427,0.352,44.26,-36.45,0
